QuaternionX,QuaternionY,QuaternionZ,QuaternionW,AttitudePitch,AttitudeRoll,AttitudeYaw,GravitationalAccelerationX,GravitationalAccelerationY,GravitationalAccelerationZ,AccelerationX,AccelerationY,AccelerationZ,RotationX,RotationY,RotationZ
-0.22436680506036094,-0.08810980631945763,3.429187802706959e-17,0.9705133247216837,-0.45059580512234326,-0.1911483475083306,-0.04393589391929569,-0.17102348804473877,0.43550196290016174,-0.8837924003601074,0.34958890080451965,0.11257483810186386,0.06732136011123657,-0.18707939982414246,0.7674453258514404,-0.13987404108047485
-0.23361631838698807,-0.039970865420498686,0.002841759424482462,0.9715028537067711,-0.47141232238725556,-0.08578648901068565,-0.014765075383628373,-0.0763358622789383,0.45414504408836365,-0.8876515030860901,0.25988778471946716,0.10055278241634369,0.12422490119934082,-0.443179190158844,0.5015220046043396,-0.16736933588981628
-0.2534966337999385,0.0011075825614158116,0.003165692131950424,0.9673304699492586,-0.5125750920617101,0.0043004698191427704,0.0076721310229653245,0.0037477780133485794,0.4904230535030365,-0.8714764714241028,0.16304118931293488,-0.024424519389867783,0.09800119698047638,-0.28557783365249634,0.5380845069885254,-0.43088477849960327
-0.2743405259155913,0.026080402540453285,-0.00955549498418227,0.9612314011903971,-0.5561353308417442,0.0528865341547315,-0.004780723634525307,0.044895682483911514,0.5279079079627991,-0.8481141924858093,0.10364110767841339,-0.08666680753231049,0.03733673319220543,-0.14589786529541016,0.7605974674224854,-0.9744440913200378
-0.27905348610227154,0.042551069525051395,-0.03806813726711759,0.9585767814710444,-0.5683332543591273,0.0716451588068951,-0.05845100452582501,0.0603308379650116,0.5382280945777893,-0.8406370878219604,0.0743766501545906,-0.13606856763362885,0.08762645721435547,-0.13253188133239746,1.2131285667419434,-1.5584487915039062
-0.284057741076814,0.057116706484706306,-0.0804136582295979,0.953720345710469,-0.5835731285971578,0.07588172866169597,-0.14543185443616516,0.06326248496770859,0.5510092377662659,-0.8320977687835693,0.08388825505971909,-0.13302405178546906,0.057409532368183136,-0.4002937078475952,1.5495319366455078,-2.0989179611206055
-0.29342522394437787,0.07562403721919513,-0.1318217366153039,0.9438250172418594,-0.6111649473233727,0.07993082402304,-0.2523123927369167,0.06539206951856613,0.5738219618797302,-0.8163653016090393,0.08552137017250061,-0.07023800164461136,0.1196390688419342,-0.63420569896698,1.4382717609405518,-2.350778579711914
-0.3045146283892655,0.09066411593117496,-0.18440823075215876,0.9300776660192193,-0.6433547769540762,0.07047475954449513,-0.3679721744637562,0.0563393235206604,0.599882960319519,-0.7981017231941223,0.16635920107364655,-0.08202841877937317,-0.02397558093070984,-0.5791592001914978,1.5955016613006592,-2.434448480606079
-0.31166652839390385,0.10603752976813405,-0.23627476270017034,0.9142178049679017,-0.6687046759580897,0.059432660581939224,-0.4851694102879052,0.04660491645336151,0.6199702024459839,-0.783240020275116,0.14059415459632874,-0.017141755670309067,0.007306763902306557,-0.3694135546684265,1.2701318264007568,-2.198965072631836
-0.3139253332620985,0.11473015651805538,-0.2774786181349838,0.9007183418795044,-0.6805067032154136,0.041779679521695305,-0.5828835448319326,0.03246396780014038,0.6291869878768921,-0.7765757441520691,0.009669007733464241,0.018907155841588974,0.16202737390995026,0.006861627101898193,0.5959022045135498,-1.6002408266067505
-0.3161900133902024,0.10679008939602366,-0.3003019492593317,0.8935538338336815,-0.6805288319662137,0.0012099647680524942,-0.6480053431777213,0.0009404223528690636,0.6292041540145874,-0.7772395014762878,-0.08845768123865128,0.05586819350719452,0.0956646203994751,-0.010112274438142776,-0.5954030156135559,-0.9158864617347717
-0.3247151232719805,0.08954984620402223,-0.3057398147751046,0.8905414310627003,-0.6855546528597412,-0.05048339853946782,-0.6794402456396511,-0.03906099870800972,0.6331024765968323,-0.7730818390846252,-0.11263950169086456,0.056191254407167435,-0.14256207644939423,-0.2783026099205017,-0.794390082359314,-0.3221646547317505
-0.33519369317986974,0.0796020765377747,-0.30210557237153507,0.8888423809401675,-0.69966990613776,-0.07984428540142849,-0.6844174443898713,-0.061020378023386,0.6439652442932129,-0.7626173496246338,-0.15561822056770325,0.008506905287504196,-0.11828798800706863,-0.3955967426300049,-0.5816996097564697,0.14939182996749878
-0.3443780463108608,0.07449928174082526,-0.2926095513847468,0.8889507238938876,-0.7153327397559807,-0.0916456667155464,-0.6702573285999389,-0.06908424198627472,0.655868649482727,-0.7517071962356567,-0.11584308743476868,-0.0171176940202713,-0.10920161008834839,-0.31463876366615295,-0.45291242003440857,0.4592125415802002
-0.35122961412634357,0.07224609626236958,-0.2771191344476683,0.89141636798257,-0.729135530324549,-0.08843185754039008,-0.6365743538113113,-0.06586220115423203,0.666225254535675,-0.7428364753723145,-0.04037165269255638,0.01449117623269558,-0.0637969896197319,-0.29075688123703003,-0.5286245346069336,0.901459813117981
-0.35673893655939487,0.07097190464031114,-0.2530562798073197,0.8964724247565174,-0.7416873570293091,-0.0723528107891853,-0.5783871148833027,-0.053301356732845306,0.6755330562591553,-0.7354006171226501,0.0200238898396492,-0.1174732893705368,-0.09756466746330261,-0.10045105218887329,-0.5772206783294678,1.2263134717941284
-0.3545725352028096,0.06869823590228401,-0.2274908314297673,0.9043266326466257,-0.737656163035536,-0.050116061757290095,-0.5122634443574405,-0.03707272186875343,0.6725552678108215,-0.7391177415847778,-0.0001223534345626831,-0.20019978284835815,-0.06414249539375305,0.2912178337574005,-0.4684668183326721,1.2912518978118896
-0.34798035408952654,0.06662979011558263,-0.2006560146507388,0.9133495458731369,-0.7240108404892368,-0.023944094613732772,-0.4415818059193102,-0.017936134710907936,0.6623947620391846,-0.7489402890205383,-0.03711267188191414,-0.21339954435825348,-0.041042014956474304,0.4254325032234192,-0.5887387990951538,1.3024449348449707
-0.3419448278716439,0.06163345210959773,-0.17242100220341652,0.9217082327076991,-0.709692480483267,-0.005669728723587776,-0.37195966213461384,-0.0043008276261389256,0.6516005396842957,-0.7585501074790955,-0.07755604386329651,-0.1729176640510559,-0.052534397691488266,0.3008061945438385,-0.7643647193908691,1.3275156021118164
-0.3390585092137136,0.05483673952575702,-0.14147743779453853,0.9284483766782556,-0.7011711206950566,0.007705879034341724,-0.29961652260692234,0.005887898616492748,0.6451129913330078,-0.7640644907951355,-0.11780169606208801,-0.10633392632007599,-0.09078102558851242,0.1310754120349884,-0.9147465825080872,1.44489324092865
-0.3375884325310562,0.04766198827814214,-0.10647059227460054,0.9340376598778873,-0.695526614964203,0.02234045171674451,-0.21890080138310644,0.017149697989225388,0.6407898664474487,-0.767524778842926,-0.1632501780986786,-0.08151885867118835,-0.08109394460916519,0.15372592210769653,-0.9215046167373657,1.6251798868179321
-0.333757169461073,0.03804792407675588,-0.06711188732431247,0.9394969248899603,-0.6844340202711189,0.03446017666996225,-0.13034851558992358,0.026693664491176605,0.6322346329689026,-0.7743170261383057,-0.2103336602449417,0.009677615016698837,0.02859741821885109,0.2518318295478821,-1.2911038398742676,1.8587486743927002
-0.330695941513967,0.021587087951541253,-0.017855921154503726,0.9433214724905057,-0.6747166517180444,0.037040046116697506,-0.024859290734704047,0.028917362913489342,0.6246761083602905,-0.7803483605384827,-0.22050170600414276,0.05243010073900223,-0.13305549323558807,0.044231951236724854,-1.776277780532837,2.2412233352661133
-0.32996170054234175,0.005322006534179391,0.03940567786485926,0.9431565257037648,-0.671283649773778,0.04604768709954959,0.09957851397788531,0.03604369983077049,0.6219916343688965,-0.7821938991546631,-0.19527198374271393,0.03780827671289444,-0.22837099432945251,-0.006451666355133057,-1.5497610569000244,2.5878138542175293
-0.3289031765147803,-0.007455666679199865,0.09967207746266572,0.9390594334229082,-0.667730498334897,0.0657125835310659,0.23428842682983655,0.05156229808926582,0.6192055344581604,-0.7835342288017273,-0.07913151383399963,0.012107905000448227,-0.15851722657680511,-0.11947613954544067,-1.4846289157867432,2.668630838394165
-0.3283436865836527,-0.015101143105314171,0.158303044655538,0.9310760065439627,-0.663917546828575,0.09643750443400591,0.370088495218869,0.07583498954772949,0.6162070035934448,-0.7839247584342957,0.02629660628736019,-0.03817475587129593,-0.05872216075658798,-0.09074866771697998,-1.1436172723770142,2.635528564453125
-0.32445365616616106,-0.01896732661170346,0.21265129344764064,0.9214930949703646,-0.6510606867300384,0.12989614815954453,0.4974953772416498,0.10303446650505066,0.6060305237770081,-0.7887400984764099,0.024939630180597305,-0.11948446929454803,0.07970073819160461,0.15182358026504517,-1.242070198059082,2.4073121547698975
-0.3161810592077492,-0.025576076472567804,0.26211373324599685,0.9114118971353657,-0.6307492904453925,0.1480541790235685,0.6084511313639117,0.11913011968135834,0.5897500514984131,-0.7987508177757263,0.04488317295908928,-0.10147089511156082,-0.01001386996358633,0.2089381217956543,-1.1233100891113281,2.1513140201568604
-0.3087806694477173,-0.030238121164077324,0.305771419196299,0.9001355510753883,-0.6118475504200689,0.16492664511389252,0.707126715983989,0.1343958079814911,0.5743808746337891,-0.8074802756309509,0.06449872255325317,-0.07133838534355164,-0.05571936443448067,0.08147644996643066,-0.9112873077392578,1.9857962131500244
-0.3039531076409847,-0.03162581014528084,0.34369677044211455,0.8879667176100912,-0.5962456036687193,0.18569295684283948,0.7958128798510834,0.15277008712291718,0.561539888381958,-0.8132246136665344,0.06993664801120758,-0.1043720617890358,-0.003177369013428688,0.04399487376213074,-0.7068002223968506,1.6988117694854736
-0.30002067392967,-0.034049632211584586,0.37503001859144813,0.8764592406486869,-0.5841026786986406,0.1995302055801719,0.8688056488291503,0.16534730792045593,0.5514510869979858,-0.817656397819519,0.058464791625738144,-0.06825641542673111,-0.021139349788427353,-0.02950751781463623,-0.6536968946456909,1.3986810445785522
-0.29709982400319335,-0.03767154567893207,0.40088787891386995,0.8657953199971334,-0.5759829435285909,0.2077442449235454,0.9290129677363747,0.17297574877738953,0.544659435749054,-0.8206250667572021,0.05717878043651581,-0.07306254655122757,-0.04134369641542435,-0.04554486274719238,-0.5356045365333557,1.1398513317108154
-0.2925479053134321,-0.04121039808712233,0.4218797703653507,0.8571668102178203,-0.5660429356589042,0.21029723811043557,0.9761106233005248,0.17619173228740692,0.5362964272499084,-0.8254348635673523,0.04028366506099701,-0.10695311427116394,0.023207955062389374,0.12920928001403809,-0.6116893887519836,0.9124245643615723
-0.2843113827370559,-0.0444918136196756,0.4399405975861653,0.8506702533281488,-0.5502003035087446,0.20612625714775967,1.0129480422583823,0.17446452379226685,0.5228580236434937,-0.8343750238418579,0.04060395434498787,-0.11834296584129333,0.08834447711706161,0.2937728762626648,-0.6206058263778687,0.7815361022949219
-0.27374330699815236,-0.048101878907575855,0.45674411152254185,0.8450653971719568,-0.5312396053576527,0.19701170707594515,1.0447730965943023,0.16876283288002014,0.5066025257110596,-0.8455016016960144,0.07253531366586685,-0.1375674605369568,0.0951332300901413,0.3200083374977112,-0.6463074684143066,0.7241461277008057
-0.26368660985584347,-0.054251603870610676,0.4729135984374093,0.8389748108608179,-0.5164146204337364,0.183141907740695,1.0750656115183024,0.15837052464485168,0.4937655031681061,-0.8550522327423096,0.03520101681351662,-0.10387655347585678,-0.22274237871170044,0.09162718057632446,-0.8135438561439514,0.7117213010787964
-0.2590321046124438,-0.05535064520620236,0.4861142565420855,0.8327854821756433,-0.5066488663855641,0.18361513583689573,1.1043875174207478,0.15964798629283905,0.4852498471736908,-0.8596773147583008,0.008036142215132713,-0.04192912578582764,-0.26709091663360596,0.06338103115558624,-0.1747116595506668,0.6293374300003052
-0.26103118358145994,-0.0523123260367465,0.49653236388911537,0.8261850820608618,-0.5043856269859185,0.19866243520929314,1.1336491968304123,0.1727815568447113,0.48326969146728516,-0.8582522869110107,-0.046914540231227875,0.10322465002536774,0.27627262473106384,-0.22094857692718506,-0.1489284485578537,0.711348831653595
-0.2605147991478842,-0.06621958219550686,0.5135616585526985,0.8148628599707642,-0.5150557252130218,0.18450761430312404,1.173445093079219,0.15966108441352844,0.49258336424827576,-0.8554940223693848,-0.21175698935985565,0.13443967700004578,0.33366841077804565,-0.5865173935890198,-1.554995059967041,0.8734842538833618
-0.25415415491825005,-0.0951781851881469,0.5353818915940453,0.7998205961198849,-0.5334056341014111,0.13968367435009668,1.2179746413266517,0.11988813430070877,0.5084688067436218,-0.8526935577392578,-0.21672452986240387,0.10270341485738754,-0.07813425362110138,-0.5395640134811401,-1.4985343217849731,0.8380900025367737
-0.2471871598325141,-0.11576840138739765,0.5542229636658378,0.7863415666543162,-0.5434243778703677,0.10760555876923991,1.2579022200564278,0.09192660450935364,0.5170701146125793,-0.8509923815727234,-0.2632429599761963,0.08724776655435562,-0.017167946323752403,-0.20554769039154053,-1.2148594856262207,0.8275160193443298
-0.23826508443914998,-0.13130458838259007,0.5736011999482408,0.7726386912418622,-0.545468411330817,0.08248624789101978,1.300312888539412,0.0704362764954567,0.5188186168670654,-0.8519777059555054,-0.2887245714664459,0.07155584543943405,0.019056450575590134,-0.09318822622299194,-1.1391938924789429,0.9718185067176819
-0.23030997447603577,-0.14380234560108465,0.594178402062108,0.7571196801629746,-0.546421259484661,0.06551963552144316,1.349158260874284,0.055939268320798874,0.5196329355239868,-0.8525564074516296,-0.286378413438797,0.06870297342538834,-0.0658016949892044,-0.09804853796958923,-0.8688491582870483,1.084824800491333
-0.22699512166809555,-0.14941309559598195,0.6133628155623739,0.7415759895535465,-0.5468007714692829,0.06661319016609613,1.4007912403450862,0.05685842037200928,0.5199571847915649,-0.8522979021072388,-0.24278149008750916,0.04610195755958557,-0.06050991266965866,-0.05620497465133667,-0.41505300998687744,1.094483494758606
-0.2270877500868967,-0.14757573504946211,0.6296713138296423,0.7281253157722868,-0.5428111367961039,0.08310080859097727,1.449166218109179,0.07107403874397278,0.5165451169013977,-0.8533051013946533,-0.22811974585056305,-0.002576008439064026,-0.002095922827720642,0.08943250775337219,-0.07499507069587708,0.9310652017593384
-0.22737706109541955,-0.14270637583679086,0.6414917388866256,0.7186256862454631,-0.5350544909235385,0.1008590845647377,1.4851621146995557,0.08661609143018723,0.5098879337310791,-0.8558691143989563,-0.21905456483364105,-0.0011370107531547546,0.03281068801879883,0.12589502334594727,-0.04155205935239792,0.622475802898407
-0.22680344780071635,-0.1385461563551009,0.6465614441958003,0.7150688398541494,-0.5276650602825613,0.1103468241338029,1.5000915477136407,0.09514466673135757,0.5035173892974854,-0.8587303161621094,-0.20372338593006134,-0.020214930176734924,-0.04486067593097687,0.18409374356269836,0.2638847529888153,0.09911748021841049
-0.2211697297704303,-0.13698722495977997,0.6421644813863816,0.7210709181418038,-0.5177137400743858,0.099709866113972,1.4815852322523841,0.08649969846010208,0.494894802570343,-0.8646368980407715,-0.21656501293182373,-0.09153658151626587,-0.22168919444084167,0.3780829906463623,0.606829047203064,-0.597382128238678
-0.21534044645046185,-0.13026141568223076,0.622954362981948,0.7406674653730155,-0.5021202565782464,0.08604824643423707,1.4206571674270467,0.07533377408981323,0.4812851846218109,-0.8733208775520325,-0.24798350036144257,-0.057114049792289734,-0.11733190715312958,0.5588477849960327,1.059983730316162,-1.4888038635253906
-0.21693942022485269,-0.11072618302961246,0.5898488474320687,0.7699060771801158,-0.48326119576938054,0.0966233769622685,1.3313202871379326,0.08542542904615402,0.464669406414032,-0.8813539743423462,-0.3020865023136139,-0.06508636474609375,0.007805489003658295,0.7240469455718994,1.5846682786941528,-2.351975202560425
-0.21746569036369734,-0.08864104443982451,0.5439824295501684,0.8055647983634217,-0.46318944187724653,0.10502132308268707,1.2126734577776013,0.09378283470869064,0.4468037784099579,-0.8897028565406799,-0.3408654034137726,0.08209578692913055,0.16996866464614868,0.7396841645240784,1.4187577962875366,-2.700650930404663
-0.216177670859572,-0.0727694755878866,0.4958304472517455,0.8379283799263977,-0.4494225009843633,0.10279436591505683,1.0921537865483268,0.09242373704910278,0.43444547057151794,-0.8959436416625977,-0.30379095673561096,0.18812201917171478,0.2420300394296646,0.5230854749679565,1.0732014179229736,-2.4904372692108154
-0.21434430103626512,-0.06472042539804321,0.45548021983790776,0.8616295610402915,-0.4426422098073221,0.09279244348299635,0.9934644899575118,0.08372912555932999,0.4283285439014435,-0.8997355699539185,-0.21941521763801575,0.23143237829208374,0.20620197057724,0.26007676124572754,0.5958900451660156,-1.8719981908798218
-0.21147455554208516,-0.06263731811322498,0.42884246415912664,0.8760417919432218,-0.43812706825087616,0.07918702655948992,0.9281002786414223,0.0716327354311943,0.4242441952228546,-0.9027101397514343,-0.15589426457881927,0.1638098955154419,0.21730060875415802,0.277943879365921,0.12503957748413086,-1.0720844268798828
-0.20429228400928268,-0.06626091636706188,0.4169821960648103,0.8831761397257168,-0.4291646872191006,0.05868491427977915,0.8950166375305921,0.0533323809504509,0.41611140966415405,-0.907748281955719,-0.16250719130039215,0.12281496822834015,0.1970755010843277,0.29927098751068115,-0.41617751121520996,-0.3247551918029785
-0.194086302119059,-0.07512549183033225,0.4201405087248314,0.8832716068813314,-0.4180600769262109,0.033243161983940735,0.8950324679714551,0.030374616384506226,0.4059883952140808,-0.9133733510971069,-0.12122603505849838,0.10447347164154053,0.17025408148765564,0.2800043821334839,-0.8071993589401245,0.391789972782135
-0.18166717134772498,-0.09140504082959514,0.43799434057865494,0.8756728678519573,-0.4095883997006152,-0.0010285167776854093,0.9273699644348107,-0.0009434343664906919,0.3982318341732025,-0.9172843098640442,-0.08054478466510773,0.10660535097122192,-0.1112838089466095,0.09578239917755127,-1.3450367450714111,1.13383948802948
-0.17331590282038395,-0.10687099395530379,0.4673820357922832,0.8602873424565497,-0.4094470229832331,-0.02384295191339425,0.9903970278488571,-0.021870039403438568,0.39810213446617126,-0.9170803427696228,-0.07046213001012802,0.08959810435771942,-0.15489262342453003,0.061479926109313965,-1.1560394763946533,1.76661217212677
-0.16680890179684507,-0.12246787804848143,0.5047500772615843,0.8380953063996059,-0.41504909456488615,-0.04031912505027719,1.0756665574967665,-0.03688588738441467,0.4032348692417145,-0.9143528342247009,0.1670232117176056,-0.0010906942188739777,-0.254875123500824,-0.18461400270462036,-1.1126848459243774,2.1082262992858887
-0.1690520239108808,-0.12752631540428563,0.5418444425600184,0.8133652968506268,-0.4259663263024986,-0.026634048757439938,1.16956544100477,-0.024251149967312813,0.4132009744644165,-0.9103168845176697,0.22406083345413208,0.02569592371582985,-0.2575140595436096,-0.15446755290031433,-0.1619265377521515,2.267857551574707
-0.17396546909432997,-0.1231808065692713,0.5796318653927087,0.786504537935987,-0.42953523632428536,0.008697519655353063,1.272119103724508,0.007907344028353691,0.41644832491874695,-0.909125030040741,0.2117336392402649,-0.04857639968395233,0.029278473928570747,0.039412885904312134,-0.29962462186813354,2.370496988296509
-0.16940343391703805,-0.12457265876862057,0.6179895661604086,0.7575441776274673,-0.42314530741707657,0.022639004824307196,1.373441417415304,0.0206405371427536,0.41063040494918823,-0.9115682244300842,0.1715240478515625,-0.0827753096818924,0.13645270466804504,0.1729004979133606,-0.9971166849136353,2.273879051208496
-0.15789528189834948,-0.1314969004173553,0.6550453899616989,0.7271129600364991,-0.4135780662283381,0.01707098824644667,1.4701894745929645,0.015630966052412987,0.40188831090927124,-0.9155552983283997,0.12185201048851013,-0.07153299450874329,0.08331920206546783,0.18419867753982544,-1.13472318649292,2.2097909450531006
-0.14577149786476679,-0.13929690360578628,0.6905983587827448,0.6945652882088315,-0.4059503713458717,0.008530953178971162,1.5668243502492882,0.007837539538741112,0.3948920965194702,-0.9186940789222717,0.07695624232292175,-0.08534738421440125,0.036644499748945236,0.1061590313911438,-1.1790497303009033,2.207460403442383
-0.1336895332575237,-0.1475199090079832,0.7230662665466469,0.6614681890233476,-0.4008445513102364,-0.001983934918372593,1.6593148601779117,-0.0018266575643792748,0.3901961147785187,-0.9207299947738647,0.07036532461643219,-0.10185640305280685,-0.04246106743812561,0.13652938604354858,-1.1072748899459839,2.0579888820648193
-0.12201883849775451,-0.1531702241828245,0.7514009149884819,0.630116627101343,-0.394077641065161,-0.010462165983727649,1.7438400149650526,-0.009660063311457634,0.3839567005634308,-0.923300564289093,0.0979706346988678,-0.13308930397033691,-0.08880458772182465,0.20630639791488647,-0.925508439540863,1.8197101354599
-0.11261033574700165,-0.15343618803760897,0.774306219312795,0.6035115077649067,-0.3828185241749262,-0.011655139962969486,1.8152001004949854,-0.010811231099069118,0.37353646755218506,-0.9275525212287903,0.14155146479606628,-0.12914110720157623,-0.054331712424755096,0.3246058225631714,-0.5609272718429565,1.4784027338027954
-0.10383129765896017,-0.15056153242496337,0.7921753760205943,0.5822443719124824,-0.3676812786848158,-0.011597388697957152,1.871780106812371,-0.010822001844644547,0.35945266485214233,-0.9331005811691284,0.12583574652671814,-0.10544504225254059,-0.07289256155490875,0.4203457534313202,-0.5016216039657593,1.1465774774551392
-0.09383467659366268,-0.14775577266233075,0.8065819701911552,0.5646137817385195,-0.3515090614829336,-0.01648805123770492,1.917201856078287,-0.015479161404073238,0.3443149924278259,-0.938726544380188,0.052311092615127563,0.004107547923922539,-0.1405773013830185,0.3166450262069702,-0.5218445062637329,0.9918394088745117
-0.08839500753619697,-0.1451104087382549,0.8186079771604116,0.5486441109144498,-0.3411508889427759,-0.015393948242040921,1.9580295622217265,-0.014506213366985321,0.334571897983551,-0.9422585964202881,0.043808575719594955,0.038520485162734985,0.07230307906866074,0.2126702070236206,-0.2079009860754013,0.8839396238327026
-0.0837213110723408,-0.14488057882098151,0.8285789737325661,0.5342819994947399,-0.3358285854709183,-0.017026662058930442,1.993260069539609,-0.01607472263276577,0.3295516073703766,-0.9440007209777832,-0.056386254727840424,0.0819178968667984,0.20401427149772644,0.04432293772697449,-0.5066206455230713,0.7809668183326721
-0.07633107102101236,-0.1487316715416477,0.8368998244909979,0.5212016177233617,-0.33473064362864174,-0.028882246710202068,2.0227150578440045,-0.027275443077087402,0.32851478457450867,-0.9441049098968506,-0.10173660516738892,0.12435144186019897,0.11675320565700531,0.0015970617532730103,-0.5088264346122742,0.6135305166244507
-0.07030725126527824,-0.15638725178578963,0.842991961313494,0.509867118730841,-0.3419885045003474,-0.043466598465751904,2.0461583645125874,-0.04093652963638306,0.335361123085022,-0.9411998391151428,-0.14663615822792053,0.1492076814174652,0.051628440618515015,0.014760330319404602,-0.4435344636440277,0.5611937046051025
-0.06478057705827965,-0.1648459020775431,0.8479267588178248,0.4996493317296178,-0.3514820705421658,-0.05847837126437451,2.0662355112301185,-0.05487190932035446,0.3442896604537964,-0.9372586011886597,-0.14151671528816223,0.1113649308681488,0.02462018094956875,0.14486554265022278,-0.27748793363571167,0.48575398325920105
-0.060234762193320315,-0.17424514974897332,0.8513578543508086,0.49112131186827984,-0.3638289073649163,-0.07345857668880669,2.081599791896874,-0.06858832389116287,0.3558551073074341,-0.9320207834243774,-0.13814961910247803,0.09676510095596313,-0.011770411394536495,0.18240000307559967,-0.15785625576972961,0.426869660615921
-0.057244976443406224,-0.17945028026348847,0.8545147833767839,0.48407141296192435,-0.37052746104679185,-0.0815162468806415,2.095481515012991,-0.075900137424469,0.36210715770721436,-0.9290412068367004,-0.1129080206155777,0.06576329469680786,-0.03819384053349495,0.17035719752311707,-0.06338275969028473,0.34927666187286377
-0.05640689252912114,-0.1787944513152345,0.8574077133464096,0.47927321710888726,-0.36898411591856406,-0.08012842854547549,2.1072098114362907,-0.07465536147356033,0.3606681227684021,-0.9297016263008118,-0.08058814704418182,-0.00028190016746520996,-0.007500695064663887,0.3009141981601715,0.1330757439136505,0.24825967848300934
-0.05487199638868962,-0.1742780599255816,0.8599073170370921,0.47662940787457886,-0.359742440155914,-0.07674560487010319,2.115384358100177,-0.07176242768764496,0.35203316807746887,-0.9332324266433716,-0.07305355370044708,-0.02762805111706257,0.020520608872175217,0.43905776739120483,0.1455637514591217,0.1791936606168747
-0.05187196799219601,-0.16758046538321283,0.8624117935956035,0.4748388992505896,-0.3451187162491112,-0.07411122441423995,2.1220713293252027,-0.0696774423122406,0.3383083939552307,-0.9384521842002869,-0.08033560961484909,-0.027883591130375862,0.037612609565258026,0.43823957443237305,0.1063142716884613,0.17725390195846558
-0.048005923000001345,-0.1617383511300467,0.8648964031403927,0.4727475971505608,-0.3311843073435411,-0.07396574790913972,2.12877608494088,-0.06988252699375153,0.32516321539878845,-0.9430722594261169,-0.08671951293945312,-0.034427739679813385,0.03702676668763161,0.34527379274368286,0.07176244258880615,0.1958271861076355
-0.046014635452192094,-0.15678498256216097,0.8672007340603871,0.47038713265852866,-0.3206858174447294,-0.07138837333737985,2.13603195952117,-0.06769141554832458,0.3152174949645996,-0.9466022253036499,-0.08538356423377991,-0.04806489124894142,0.03806161880493164,0.28656280040740967,0.1287069022655487,0.15392141044139862
-0.04239886493336159,-0.1530061391439685,0.86870837379887,0.46918780318788417,-0.31059108081746295,-0.07349207312060334,2.139663410214207,-0.06991272419691086,0.30562150478363037,-0.9495829343795776,-0.08530154824256897,-0.04220331460237503,0.04331747815012932,0.22659143805503845,-0.09679160267114639,0.057596977800130844
-0.03714403876634019,-0.15061393608794096,0.8696187896029196,0.46872051047902863,-0.3013124291232358,-0.08028891317109021,2.1406876155713883,-0.07658936083316803,0.296773761510849,-0.9518715143203735,-0.05854831263422966,0.03048301301896572,0.0598197765648365,0.13226579129695892,-0.08141438663005829,0.028129154816269875
-0.032711385037844855,-0.1525859570008221,0.8700949273264957,0.46752790040936854,-0.3006231892496523,-0.0898997942745592,2.1418408983238573,-0.08575235307216644,0.296115517616272,-0.9512949585914612,-0.03641276806592941,0.037271417677402496,0.04881900176405907,-0.051320817321538925,-0.23339350521564484,0.053876396268606186
-0.029475785273425356,-0.15543866737651654,0.8706151801728103,0.46583177463999625,-0.30271834055749874,-0.09810333711323138,2.144015621558727,-0.09349239617586136,0.2981160581111908,-0.949940025806427,-0.014038760215044022,0.023276476189494133,0.006921005435287952,-0.02432567998766899,-0.21035648882389069,0.10143187642097473
-0.02684506618944428,-0.1598601094783152,0.8716162174050363,0.46261128710491045,-0.3083753115134178,-0.10631480185943668,2.1491642174788272,-0.10110898315906525,0.30351099371910095,-0.947448194026947,0.005752593278884888,-0.022378353402018547,-0.08944579213857651,0.0868755429983139,-0.13916881382465363,0.17163418233394623
-0.02432866688670056,-0.1596963819590861,0.8734617615957349,0.45931439123065354,-0.3060833824794583,-0.10949930666832242,2.1564517776000613,-0.10420136153697968,0.3013263940811157,-0.9478103518486023,0.036728303879499435,-0.05523903667926788,-0.09247449785470963,0.14886118471622467,-0.09087957441806793,0.14185267686843872
-0.02292730224092923,-0.15686971393726454,0.8750511620038454,0.4573310096883495,-0.2999880428040095,-0.10840155779570725,2.1620143134523127,-0.10335763543844223,0.29550880193710327,-0.9497324824333191,0.10333199054002762,-0.06930676102638245,-0.009962469339370728,0.09910659492015839,0.04628795385360718,0.08945076167583466
-0.023458308383511844,-0.15392528528759528,0.8758803902931781,0.45671675518434995,-0.2953428607007133,-0.10419903090023468,2.1647787235097526,-0.0995071604847908,0.291067898273468,-0.951513409614563,0.12318285554647446,-0.08194324374198914,0.019062383100390434,0.005987881682813168,0.050562016665935516,-0.0049507999792695045
-0.024846100400948992,-0.15019996582319428,0.8758644310048987,0.45791275383046826,-0.2899082528099275,-0.09828637679664647,2.1637726366505734,-0.09403332322835922,0.28586432337760925,-0.9536452889442444,0.14552728831768036,-0.04308280348777771,-0.0008553024381399155,0.01972619630396366,0.08916491270065308,-0.07797469943761826
-0.027741895527698637,-0.14569063003330276,0.8759346398716027,0.4590676737428242,-0.28452518095806784,-0.08884781441403063,2.163393672447033,-0.08516353368759155,0.28070175647735596,-0.9560092687606812,0.15975135564804077,-0.010540880262851715,0.030855633318424225,0.0026383735239505768,0.07052446901798248,-0.04167759418487549
-0.029791890492390338,-0.14370863758752403,0.8759640544878778,0.45950761187409783,-0.2829050603995651,-0.08328008628155244,2.163501210527335,-0.07987716794013977,0.2791464030742645,-0.9569205641746521,0.16211074590682983,0.04397609084844589,-0.011291734874248505,-0.07350941002368927,0.028741391375660896,-0.0018748072907328606
-0.033930809882147195,-0.14342864722693344,0.8764236791273945,0.45843033757814466,-0.2864183984825767,-0.07515821621051394,2.1668854794533283,-0.07202854752540588,0.2825183570384979,-0.9565538763999939,0.1428772658109665,0.05051540583372116,-0.04405046999454498,-0.13143162429332733,0.01750246062874794,0.09067528694868088
-0.03891361849319472,-0.1439302800606671,0.8774342452289109,0.4559373872502915,-0.29220354262853176,-0.06579239718661381,2.1734585865655602,-0.06295809894800186,0.28806307911872864,-0.9555395841598511,0.1158561035990715,0.009629789739847183,-0.025430234149098396,-0.07386121898889542,0.03257337212562561,0.11542850732803345
-0.04314560539929869,-0.14353329427474518,0.8783938791943305,0.4538291785812586,-0.29560535692440354,-0.05698258182301596,2.179336459180873,-0.05448151379823685,0.29131901264190674,-0.9550732970237732,0.10255803167819977,0.0052733346819877625,0.047679487615823746,-0.02805669605731964,0.026581522077322006,0.09345293045043945
-0.046854694193128765,-0.14304065088383636,0.8791664444019762,0.45211778262743596,-0.29828436284814963,-0.04914535740973259,2.1842302155400004,-0.04695628210902214,0.29388076066970825,-0.9546880125999451,0.09882943332195282,0.014081515371799469,0.07456725090742111,-0.07040693610906601,0.058914318680763245,0.0765625536441803
-0.050680806003053185,-0.1437693087453436,0.8795896065740808,0.45064847075502995,-0.3032195620941058,-0.04236709592532686,2.188178073977605,-0.04042220860719681,0.2985944449901581,-0.9535236954689026,0.08807814121246338,0.020185472443699837,0.09423781931400299,-0.1368589997291565,-0.0012875981628894806,0.06018375605344772
-0.05280822829190996,-0.14628950137543822,0.8795841792397673,0.4496022815318661,-0.30976335386465087,-0.04058799156404368,2.1901939629708695,-0.038645610213279724,0.3048332631587982,-0.9516213536262512,0.06240324303507805,0.00025584176182746887,0.03339792788028717,-0.11556326597929001,-0.029733140021562576,-0.010399548336863518
-0.05461794914462577,-0.14878740970281115,0.8786692431103236,0.45035495837961437,-0.3158923277504427,-0.04002256110930911,2.187955648077441,-0.038032058626413345,0.3106647729873657,-0.9497583508491516,0.04982803761959076,0.01649627834558487,-0.05981966108083725,-0.1321757733821869,0.03843610733747482,-0.10249639302492142
-0.0577955627422718,-0.14933149029207116,0.8774550551155271,0.4521420646432074,-0.3197475880346887,-0.03541407598435622,2.184275435061013,-0.03361206874251366,0.3143269717693329,-0.9487195611000061,0.010914381593465805,-0.004063957370817661,-0.03446825593709946,-0.07962195575237274,0.0799807608127594,-0.10392356663942337
-0.06063165293224145,-0.1503813789916154,0.8763975612368393,0.4534717503181297,-0.3242281337167327,-0.03177309217459838,2.1814122144434824,-0.030112536624073982,0.31857722997665405,-0.9474185109138489,-0.01906220242381096,-0.01096804067492485,-0.014869431965053082,-0.2029605656862259,0.050509385764598846,-0.04554276540875435
-0.06527286457705794,-0.15551229273994305,0.8753214283178868,0.4531753698396519,-0.3377940295771026,-0.028280977596698946,2.181316997522443,-0.02667919546365738,0.3314065933227539,-0.9431107640266418,-0.0395255982875824,-0.06305989623069763,-0.014155923388898373,-0.5036296248435974,0.14499950408935547,0.03957342356443405
-0.07351476913145075,-0.1647219931802118,0.8735069139100493,0.45215922761108795,-0.36211446169917616,-0.021955271974772192,2.1822589585541436,-0.02052980847656727,0.3542523682117462,-0.9349244832992554,-0.05727840214967728,-0.08943626284599304,0.03440803289413452,-0.7837194204330444,0.1542743444442749,0.06444637477397919
-0.08351501011028827,-0.17727714056639624,0.8714806408250748,0.44957715470538284,-0.3942112691986733,-0.014986024960040431,2.186062598231329,-0.01383606344461441,0.38408008217811584,-0.9231961369514465,-0.05803253501653671,-0.1156412661075592,0.016286421567201614,-0.9429422616958618,0.20510676503181458,0.17681105434894562
-0.09408071272315527,-0.19051414537362948,0.8696256544956347,0.4456506502376254,-0.4281694947008418,-0.0067883530214670924,2.1929809732254415,-0.006175490561872721,0.41520625352859497,-0.9097063541412354,-0.06660722196102142,-0.14938785135746002,-0.008181308396160603,-0.8782486319541931,0.1280798763036728,0.15646466612815857
-0.10188699154520106,-0.20102449281029774,0.8678791581672024,0.44271208461877476,-0.45464470678592145,-0.0012697353294616528,2.1978964513699872,-0.0011407391866669059,0.4391431510448456,-0.8984163999557495,-0.026319721713662148,-0.14099615812301636,-0.029781524091959,-0.5452459454536438,0.1628524363040924,0.08527138829231262
-0.10754263518244048,-0.2037651449909965,0.8667049227429257,0.442421693275906,-0.4649374566882251,0.006841496929343825,2.1992448994762324,0.0061152344569563866,0.4483669102191925,-0.8938286900520325,0.013246826827526093,-0.09552894532680511,0.09254148602485657,-0.13030624389648438,0.33158838748931885,0.053556837141513824
-0.11238688789910295,-0.1984200501602672,0.8672246587540594,0.4426286026745555,-0.4596570982253009,0.021510787746261507,2.2027649059187406,0.01927659474313259,0.4436408281326294,-0.8959973454475403,0.026236876845359802,-0.15602782368659973,0.37609827518463135,0.3594074845314026,0.3939877152442932,0.08882413059473038
-0.11130877376537103,-0.18668999303089873,0.8696448256145738,0.4432551216636813,-0.4371777546699376,0.031017282957707643,2.205733591768847,0.02809562161564827,0.4233843684196472,-0.9055144190788269,0.0005156397819519043,-0.15982848405838013,0.6467438340187073,0.6780956387519836,-0.16157881915569305,0.08070957660675049
-0.10216562518408714,-0.1789321836508579,0.8729168870928619,0.44222352471376186,-0.4145148729242217,0.02197040889482599,2.208378472219721,0.020108170807361603,0.40274593234062195,-0.9150909185409546,0.028467804193496704,-0.0822298675775528,0.4748474955558777,0.42156538367271423,-0.18240013718605042,0.12644100189208984
-0.09921757635373762,-0.17180247199391435,0.8757365562723488,0.4401424546561814,-0.3987287677941369,0.024463037933809873,2.215089807243846,0.02254180796444416,0.38824716210365295,-0.9212795495986938,0.021336250007152557,-0.04445608705282211,0.4952504634857178,0.3875415027141571,-0.06606385856866837,0.19391986727714539
-0.09471315670960513,-0.16721869474501033,0.8788494600865772,0.4366818898334268,-0.3861656022451504,0.02206066567047728,2.223610717715888,0.02043447457253933,0.37663915753364563,-0.9261346459388733,0.03263051062822342,-0.018669014796614647,0.23714403808116913,0.24610313773155212,0.047995276749134064,0.1875908076763153
-0.09659171353496054,-0.16024560153664846,0.882107131435611,0.4322944758416417,-0.3749432306035872,0.03424734861103369,2.236745432792168,0.031861916184425354,0.366219699382782,-0.9299827814102173,0.033191222697496414,0.0423954576253891,0.3140117824077606,0.3179931342601776,0.10798794031143188,0.4595996141433716
-0.09396717486896192,-0.15363017524962763,0.8871055312613189,0.42498439427328305,-0.36017875325711696,0.038624093478360697,2.255100087898382,0.03613676130771637,0.3524415194988251,-0.9351359009742737,0.018526215106248856,-0.0020427312701940536,0.23116029798984528,0.38374489545822144,-0.3779665231704712,0.41807878017425537
-0.08551903679005902,-0.15110458141874225,0.8922301854156973,0.4168681989448862,-0.34791712707901906,0.028324573182280356,2.272406865573527,0.026623956859111786,0.3409404754638672,-0.9397078156471252,0.12360221892595291,0.05241873860359192,-0.11573061347007751,0.23905256390571594,-0.22882425785064697,0.45251211524009705
-0.08007789207304922,-0.14750273306771242,0.8975736626734301,0.4076666759631224,-0.33638759599506374,0.024884856688313833,2.2931568908774347,0.023487728089094162,0.3300793170928955,-0.9436609745025635,0.14043165743350983,0.0030469149351119995,-0.04714122787117958,0.31394362449645996,-0.4307515025138855,0.45952826738357544
-0.06716572602843915,-0.14538867684382945,0.9033551072904401,0.3978698605140944,-0.32163869366487324,0.0059632975255899555,2.312816274839088,0.005657470319420099,0.3161216378211975,-0.948701798915863,0.15723739564418793,0.019259482622146606,0.08675199747085571,0.42303669452667236,-0.8598195314407349,0.47582313418388367
-0.04388968890110336,-0.1433319457259103,0.9104173812968931,0.3855773286614739,-0.29927711110994476,-0.032044864936572874,2.335533121398766,-0.030615216121077538,0.2948295474052429,-0.955059289932251,0.049588385969400406,-0.0071777161210775375,0.10956893861293793,0.7796589732170105,-1.3776519298553467,0.6616443991661072
-0.00991469866223145,-0.13156652639489763,0.9210925051495483,0.36630674841004096,-0.252301779706603,-0.08076467819047267,2.37432222568292,-0.07812269777059555,0.2496335208415985,-0.9651839137077332,-0.11279239505529404,-0.1892029494047165,0.25940054655075073,1.7272731065750122,-1.7522900104522705,0.9928187131881714
0.03973053857152945,-0.10618095007023674,0.9333519584424445,0.3405893474194393,-0.1719914945668397,-0.14924048163686957,2.4289123982470877,-0.1464933454990387,0.17114479839801788,-0.9742941856384277,-0.1360144466161728,-0.3449100852012634,0.2722872495651245,2.5570785999298096,-2.0981268882751465,1.19209885597229
0.09115827005646916,-0.06449637590286685,0.9446589240124331,0.30846377046581225,-0.06566328293850278,-0.2141065177016756,2.5032952676322706,-0.2120165377855301,0.06561610102653503,-0.975060760974884,0.013074442744255066,-0.40395820140838623,0.5900255441665649,3.2279441356658936,-1.686764121055603,1.4174504280090332
0.14671420957016174,-0.02171236528915122,0.9509661651954997,0.271416292020242,0.03835520748990556,-0.2953144797399506,2.591259599342477,-0.290826678276062,-0.0383458137512207,-0.9560070037841797,-0.024547286331653595,-0.1345176249742508,0.4873558282852173,2.681535482406616,-2.247250556945801,1.63190758228302
0.19814208389806906,0.010836203305614522,0.9542852860534456,0.22352143701799343,0.10947822592711454,-0.38501427342478883,2.7027900965852694,-0.373323917388916,-0.10925967991352081,-0.9212445616722107,-0.03349053114652634,-0.4126003682613373,0.13261252641677856,3.2990682125091553,-0.5749334096908569,1.9879703521728516
0.2569632768857068,0.028497175758157245,0.9472580044489207,0.18936753602577666,0.15189275074392464,-0.5024483968990892,2.786025080026021,-0.476028174161911,-0.15130937099456787,-0.8663155436515808,-0.13831552863121033,0.40543800592422485,-1.260360598564148,0.3448694348335266,-1.4400901794433594,1.7603511810302734
0.2748830783112675,0.014810487401699214,0.9508424509772225,0.14184008537267845,0.1063440875952318,-0.5485910364339353,2.8753803981271187,-0.518539547920227,-0.1061437726020813,-0.8484398722648621,-0.4147636294364929,0.2057686448097229,0.1146669015288353,-0.06530773639678955,-1.3124589920043945,2.5839178562164307
0.32011712257475994,-0.015482854626893956,0.942422399154368,0.09552642928053351,0.03198196516165274,-0.6518264010728622,2.9503669966890413,-0.6063291430473328,-0.03197652846574783,-0.7945706248283386,-0.6990067958831787,0.46609440445899963,-0.5196093916893005,-1.2794630527496338,-2.9038100242614746,2.6937568187713623
0.35345761843001466,-0.060316617478170916,0.9325108323655457,0.043047361460271494,-0.08215334260645069,-0.7297018987753439,3.0179387735063448,-0.6643990874290466,0.08206095546483994,-0.7428592443466187,-0.7563132643699646,0.5771347284317017,-0.4973927140235901,-0.8105173110961914,-1.3325185775756836,3.1212589740753174
0.37015211179510277,-0.09058836692516557,0.9244415495642295,-0.01375139640257067,-0.1786157507288138,-0.7655035628605487,3.0992686528788487,-0.6818765997886658,0.1776675134897232,-0.7095623016357422,-0.9202656745910645,0.39293062686920166,-0.6479464173316956,0.074088454246521,-1.0222805738449097,2.954526901245117
0.370006137124801,-0.10438330482556527,0.9209632445937507,-0.06345331503900542,-0.2415651313272498,-0.7590892214147815,-3.1007647816490103,-0.6682772040367126,0.23922260105609894,-0.7043991684913635,-0.7884244322776794,0.34889188408851624,-1.075018048286438,0.275566041469574,0.35552144050598145,2.2004716396331787
0.338969124475203,-0.11375783224355594,0.9294699718157153,-0.09080025631379779,-0.2765370851060798,-0.686113401956756,-3.04615595532079,-0.6094647645950317,0.2730259299278259,-0.7443181872367859,-0.3186410367488861,0.11253303289413452,-1.1219522953033447,0.5814014673233032,2.781534433364868,1.030605435371399
0.2955219829348686,-0.10786053376635658,0.9439979936525477,-0.0995016328647087,-0.2655604308884672,-0.5895281752514132,-3.012618402523313,-0.5364797711372375,0.26245009899139404,-0.8020657300949097,0.07958986610174179,-0.08430863916873932,-0.6580565571784973,0.7616904377937317,2.1761648654937744,-0.1297149509191513
0.2510406157261973,-0.09036500405910979,0.9596252166110049,-0.0890625463755852,-0.21991811004301895,-0.4974736369990692,-3.0125734580196086,-0.4657135605812073,0.21814970672130585,-0.8576255440711975,0.2745417356491089,0.06435833871364594,-0.03160388395190239,1.0752785205841064,2.355565309524536,-0.8300415277481079
0.20704479770612755,-0.06994580498620419,0.9728595098645212,-0.07605593748078682,-0.16838342346728943,-0.4091591683208966,-3.0205703695825883,-0.3922114372253418,0.16758884489536285,-0.9044800996780396,0.32766062021255493,-0.08911575376987457,0.3876780867576599,1.0632507801055908,1.9873253107070923,-0.7073178887367249
0.175147837697945,-0.047378307696067434,0.9815415390517528,-0.060454735607858356,-0.1144341791236449,-0.34726480633233714,-3.038657676178096,-0.33810126781463623,0.11418458074331284,-0.9341570734977722,0.2559886574745178,-0.3282357454299927,0.48636293411254883,1.0845487117767334,1.1346651315689087,-1.2275561094284058
0.15907348076463895,-0.027829471224686566,0.9863188790054139,-0.03310756225252959,-0.0654773126079753,-0.3179516468369904,-3.084985812982361,-0.3119516372680664,0.06543052196502686,-0.9478422999382019,0.2134469449520111,-0.46761423349380493,0.2831973433494568,0.4896884262561798,0.5715206265449524,-1.7707421779632568
0.15121905999220892,-0.01645835053749642,0.9883352727878093,0.007438308864649468,-0.030287739103419087,-0.30395094592105637,3.1219016328524143,-0.2991551160812378,0.030283097177743912,-0.9537238478660583,0.18975642323493958,-0.41251233220100403,0.16350646317005157,-0.0534498393535614,0.2683960795402527,-2.304966688156128
0.1492773002514364,-0.015857488341866125,0.987015690202374,0.05713948332786978,-0.014244405684129083,-0.30104705414988797,3.0237789303828726,-0.29649025201797485,0.01424391195178032,-0.9549296498298645,0.19129788875579834,-0.3296462297439575,0.15870654582977295,-0.6248974800109863,-0.02159211039543152,-2.579773187637329
0.15238667556086485,-0.024969833366312397,0.9819238401573026,0.10945452431740665,-0.01567876952388181,-0.3096946234438883,2.9171227967204016,-0.3047303557395935,0.01567811518907547,-0.9523096084594727,0.16580891609191895,-0.2387043833732605,0.2703408896923065,-0.8931121826171875,-0.4652775526046753,-2.4625401496887207
0.16596116590994525,-0.03669565261980611,0.9729725968529258,0.15631609025741006,-0.01952416805571047,-0.3410611663582363,2.819636389356766,-0.33442357182502747,0.01952291652560234,-0.9422206282615662,0.18616770207881927,-0.0022882744669914246,0.1359160840511322,-0.8318120241165161,-0.9685023427009583,-2.0347352027893066
0.18580266776981774,-0.04868959262617008,0.9624114546392497,0.19201779259624185,-0.02236587172461484,-0.3859397357579455,2.743359257412978,-0.3763357698917389,0.022363997995853424,-0.9262133836746216,0.12813721597194672,0.016355063766241074,-0.016247354447841644,-0.6983860731124878,-1.1918425559997559,-1.495240330696106
0.20312191658697237,-0.060738748089068546,0.9528077416716569,0.21727780024357873,-0.02748039096872357,-0.42642962405290985,2.687231429290198,-0.4134666323661804,0.027476923540234566,-0.9101045727729797,0.14937841892242432,-0.006497729569673538,-0.12917563319206238,-0.6021753549575806,-0.7787463068962097,-0.9917694330215454
0.21548637466028492,-0.0714408575723555,0.9453823140535328,0.23391035325592685,-0.034275569308148,-0.45684027775896496,2.6485179783534956,-0.4408555328845978,0.03426884859800339,-0.8969236612319946,0.18603701889514923,-0.02265249192714691,-0.07144919037818909,-0.5597590208053589,-0.6008420586585999,-0.6152794361114502
0.22326979569563443,-0.0820982113351303,0.9398976544180764,0.24495506458450672,-0.04496084444133017,-0.47843167021946237,2.62073035155583,-0.45992228388786316,0.04494569078087807,-0.8868209719657898,0.15145978331565857,-0.07675529271364212,-0.01819259487092495,-0.5189493894577026,-0.47767993807792664,-0.41069495677948
0.23129603186219017,-0.09452746548565892,0.9344071789261708,0.25386978639452934,-0.059250798426747395,-0.5018963803323115,2.595825334277579,-0.4802446961402893,0.059216130524873734,-0.8751333951950073,0.1410342901945114,-0.05676666647195816,0.015382934361696243,-0.7394525408744812,-0.5400465726852417,-0.30649083852767944
0.2362328625908057,-0.109907863460366,0.929482907610119,0.261104793587161,-0.08104057288737142,-0.5214970869018084,2.5722459146079926,-0.4965437650680542,0.08095189183950424,-0.8642286062240601,0.06353643536567688,-0.116400346159935,0.05116323381662369,-0.9054620862007141,-0.5542967915534973,-0.21361371874809265
0.2406520202718897,-0.12938520518071508,0.923534416037583,0.2691288364173826,-0.1096702958504372,-0.543635678777832,2.5438790892348626,-0.5141434669494629,0.1094505786895752,-0.8506921529769897,0.013794315978884697,-0.08909349143505096,-0.011356964707374573,-1.0867630243301392,-0.5231523513793945,-0.26584094762802124
0.2457883613031322,-0.15185463893705456,0.9160239669157832,0.27825954895016886,-0.14189473545920153,-0.5707169684451132,2.5100800770844023,-0.5348060727119446,0.14141905307769775,-0.8330565094947815,-0.08924558013677597,-0.17155534029006958,-0.025020787492394447,-1.1557559967041016,-0.6139100790023804,-0.38854503631591797
0.25026474866212706,-0.17573398451931468,0.9065348853158596,0.29099776171182756,-0.17383926257326207,-0.5998667420355487,2.4664881411052373,-0.5560238361358643,0.17296500504016876,-0.8129702210426331,-0.11527356505393982,-0.06908128410577774,-0.07865720987319946,-1.2494522333145142,-0.4349612295627594,-0.4418582618236542
0.2517524776286273,-0.19698572011430684,0.8976337888783725,0.3034316087197033,-0.2022385487811747,-0.6229042853345079,2.424334315557992,-0.5715064406394958,0.20086276531219482,-0.7956346273422241,-0.1347014158964157,-0.037365660071372986,-0.0779791921377182,-1.1387696266174316,-0.28226402401924133,-0.46908336877822876
0.25108254890305337,-0.21399802502539927,0.8896351567775664,0.3157716479178182,-0.22406089783123728,-0.6395209227903088,2.384976422879552,-0.5818927884101868,0.22219084203243256,-0.7823247909545898,-0.1434214562177658,0.04164696857333183,-0.10372442752122879,-0.8017560243606567,-0.14991679787635803,-0.4042017161846161
0.25265599791178667,-0.22491508348604253,0.8834450459613673,0.324195951608425,-0.2357580460429886,-0.6549223047934354,2.3577576582509416,-0.5922484993934631,0.23358012735843658,-0.7711563110351562,-0.1630793958902359,0.18677601218223572,-0.12047544121742249,-0.5214044451713562,-0.35694578289985657,-0.2154291570186615
0.25679817908518954,-0.23128337199921536,0.879723809558914,0.3265711648671664,-0.2415472224658275,-0.6699024302433866,2.3462518519730975,-0.6028839349746704,0.2392052263021469,-0.761125385761261,-0.18228104710578918,0.18832769989967346,-0.241118922829628,-0.1747109591960907,-0.22901371121406555,-0.08299291133880615
0.2587333893129074,-0.23454635180136102,0.8782510095110152,0.32668074823558346,-0.2453900476015071,-0.6770248517981101,2.34259946188638,-0.6077092885971069,0.2429347038269043,-0.7560901045799255,-0.25292909145355225,0.19713789224624634,-0.22734235227108002,-0.07127881050109863,-0.11907469481229782,0.12084545940160751
0.257225470497917,-0.2371330393424715,0.8795880586403465,0.32237828717313877,-0.2540344524121477,-0.6757358591792044,2.3493029050454672,-0.6053979992866516,0.25131097435951233,-0.7552059292793274,-0.32401055097579956,0.19685465097427368,-0.2830740809440613,-0.159163236618042,0.07483715564012527,0.42308929562568665
0.24830122208534114,-0.24165749128999017,0.883459589323093,0.3153527788280086,-0.27379217222596164,-0.6611353599138861,2.3614078190373284,-0.5911429524421692,0.2703843116760254,-0.7598963379859924,-0.347324401140213,0.13863085210323334,-0.25442931056022644,-0.1641489416360855,0.46659260988235474,0.5160966515541077
0.23657575916582496,-0.24373866734780794,0.8878648988453592,0.31035354219656697,-0.29001830399602097,-0.6388674942596206,2.3725143791996666,-0.5713849663734436,0.2859697639942169,-0.7692467570304871,-0.22491514682769775,0.23717239499092102,-0.2114606499671936,-0.08273885399103165,0.5475974082946777,0.48871928453445435
0.22349286855985812,-0.23783097832363773,0.8948259726643258,0.30458809819686966,-0.29369203432544705,-0.6055676502595405,2.3930743336664366,-0.5448554158210754,0.28948813676834106,-0.7869747281074524,-0.19369322061538696,0.2511889338493347,-0.08641169965267181,0.34668973088264465,0.6176856756210327,0.4764331877231598
0.2134159298198126,-0.22837580476693123,0.9020695610563796,0.2976050389277547,-0.28900059811154655,-0.5746048203514006,2.4183138799430424,-0.5209636092185974,0.2849944233894348,-0.8045962452888489,-0.1524980217218399,0.15347906947135925,-0.05592581257224083,0.5736858248710632,0.6042804718017578,0.3274398148059845
0.20678166205891552,-0.21552147313896272,0.9085192540475759,0.2922063994693229,-0.2741875926451909,-0.548199131930651,2.4416893044742487,-0.50168377161026,0.2707649767398834,-0.8215836882591248,-0.08004479110240936,0.20590347051620483,-0.011551691219210625,0.6023153066635132,0.46757686138153076,0.2141716182231903
0.20199177328870324,-0.20158769899607948,0.9130725513762412,0.29130776594939956,-0.25313971621071385,-0.5262832422864593,2.455394157143386,-0.48631441593170166,0.25044485926628113,-0.837123453617096,-0.021322965621948242,0.3187493681907654,0.02843349426984787,0.6132533550262451,0.36510416865348816,-0.08868846297264099
0.19823911132802283,-0.18823863207908284,0.9171068598822081,0.29014210387853984,-0.23231901542262443,-0.5073907987154932,2.4682951433182296,-0.47284480929374695,0.23023486137390137,-0.8505349159240723,0.07809190452098846,0.2605908513069153,0.057086508721113205,0.7164300084114075,0.47986817359924316,-0.053169168531894684
0.19615408595113598,-0.17115237316109724,0.9206429259348511,0.29094168065015036,-0.2023803266385843,-0.4897057137714175,2.4786850502764426,-0.460766464471817,0.20100164413452148,-0.8644608855247498,0.06260722875595093,0.3318312466144562,0.15606127679347992,0.7503548264503479,0.22052088379859924,-0.05877392739057541
0.19399670128563343,-0.16059861599164374,0.9234012199393841,0.2896610284124199,-0.18526534864206579,-0.4770600749862886,2.488486147390306,-0.4513119161128998,0.18420735001564026,-0.8731467127799988,0.0770067498087883,0.182681143283844,0.1708465963602066,0.7710880637168884,0.30122530460357666,-0.2550695240497589
0.19164434848491935,-0.15056509673105578,0.92518463770476,0.2909226963016005,-0.16788113294388873,-0.46511345718550506,2.4924254045377467,-0.4422184228897095,0.1670936495065689,-0.8812052011489868,0.08724739402532578,0.20376519858837128,0.2502363920211792,0.6225034594535828,0.28363245725631714,-0.18450219929218292
0.18837237156307132,-0.13713475781935944,0.9271078562591561,0.2935659074014861,-0.14417699272351495,-0.44926693333734935,2.495278655205745,-0.4297991991043091,0.14367800951004028,-0.8914198279380798,0.12410314381122589,0.07577423006296158,0.34068968892097473,0.5525668859481812,0.5064547061920166,-0.3096156120300293
0.18311498391839853,-0.12387175383482234,0.9285862586979334,0.2980807403229363,-0.12118149002565475,-0.4301219216091042,2.4938624359475603,-0.4139236807823181,0.12088511139154434,-0.9022493958473206,0.103957399725914,0.09267966449260712,0.3876537084579468,0.49080342054367065,0.46746325492858887,-0.19077235460281372
0.17801651188292578,-0.1099874748816167,0.9307464128856727,0.2998734329876801,-0.09813348168527637,-0.4107118076016604,2.4977673675490877,-0.3973411023616791,0.09797604382038116,-0.9124257564544678,0.1119605004787445,0.011280834674835205,0.3469388782978058,0.675419270992279,0.5463100075721741,-0.1531200408935547
0.1726246690508827,-0.09125963673805866,0.9333717412074267,0.30114723072242455,-0.06643631180881142,-0.387683824766942,2.504346316221968,-0.37721115350723267,0.06638744473457336,-0.923744797706604,0.06048879027366638,0.09953159093856812,0.3322432041168213,0.8545769453048706,0.543634295463562,-0.11555267870426178
0.16863194038191592,-0.07155378487539041,0.9358859159865798,0.30093331790222344,-0.03244411194343482,-0.3670839934748398,2.5133543726915115,-0.35870635509490967,0.03243841230869293,-0.9328866600990295,0.07456491142511368,0.09380116313695908,0.324261337518692,0.8777033090591431,0.4563339352607727,-0.13467995822429657
0.16604115658076105,-0.053769646158132185,0.9374554805969426,0.3011914829422662,-0.0007929346844741668,-0.3508566689481045,2.519713642678491,-0.3437023162841797,0.0007929260609671474,-0.9390783309936523,0.11442896723747253,0.1730625033378601,0.2611907124519348,0.6875355839729309,0.3713407814502716,-0.06922249495983124
0.16209690460501275,-0.03930691951253136,0.9392338521078095,0.3000322043889825,0.023433949103239142,-0.3343662534439176,2.5271512821918476,-0.3280804753303528,-0.023431813344359398,-0.9443591237068176,0.13652238249778748,0.15298624336719513,0.2805142402648926,0.591590940952301,0.4683881998062134,-0.010112136602401733
0.15809609047570816,-0.028108139262871482,0.940899275617848,0.298201334820313,0.04140690590556929,-0.3199703009012,2.5344397557444043,-0.3142687678337097,-0.04139508679509163,-0.948431134223938,0.10185515880584717,0.14460256695747375,0.27008259296417236,0.3367285430431366,0.2611580491065979,0.048607997596263885
0.15455454226661297,-0.021108854934039478,0.9420575238599429,0.29697628198528647,0.05205005465347422,-0.3090440404660628,2.5389396554127206,-0.30373620986938477,-0.05202656611800194,-0.9513345956802368,0.06983673572540283,0.08104828745126724,0.24801424145698547,0.20312058925628662,0.23757588863372803,0.009856157004833221
0.15105840620934716,-0.020061723870222842,0.9426269609095517,0.2970407093551904,0.05194290306972782,-0.3016566540676701,2.5389485675812695,-0.2967017590999603,-0.05191956087946892,-0.9535577893257141,0.06837620586156845,0.0006333552300930023,0.18548306822776794,-0.2112054079771042,0.17528477311134338,0.011396385729312897
0.14531922812329975,-0.026176668713855475,0.9431920663871668,0.29763348212705903,0.03713301621767805,-0.2941326345265186,2.5357539368724216,-0.28970998525619507,-0.03712449222803116,-0.9563941955566406,0.04096528887748718,-0.10627856850624084,0.05056976526975632,-0.5367968678474426,0.28597643971443176,0.11548557132482529
0.13208281858187432,-0.03793778494255635,0.9452273908796307,0.2960744884580199,0.006493084562237527,-0.2756444891174817,2.535391971499658,-0.27216142416000366,-0.006493047811090946,-0.9622297286987305,0.06318692862987518,-0.2961193323135376,0.08303282409906387,-0.8786290884017944,0.615449845790863,0.34236133098602295
0.11859907922126621,-0.05321114252740521,0.9481378928749901,0.29006426399385504,-0.032105807259182044,-0.25877625097080265,2.543637468094092,-0.2557658553123474,0.03210028260946274,-0.9662056565284729,-0.06783533841371536,-0.4939427971839905,0.06437080353498459,-0.8613510131835938,0.07336080074310303,0.5249653458595276
0.11667231770243772,-0.06941814533968109,0.9496206576344298,0.2824698710957204,-0.06597683572395568,-0.26444605933252374,2.5545731456135834,-0.26080596446990967,0.06592897325754166,-0.9631373882293701,-0.29441359639167786,-0.5922700762748718,-0.49652111530303955,-0.6273143291473389,-0.2142479121685028,0.4581204354763031
0.11111365801219922,-0.07978631042162936,0.9518516812936715,0.2743468536375696,-0.09104784373305376,-0.25926228758896847,2.568477819339227,-0.255305677652359,0.09092209488153458,-0.9625757932662964,-0.37962061166763306,-0.5817161202430725,-0.6593797206878662,-0.41268980503082275,0.3969513773918152,0.46663495898246765
0.10302157628764913,-0.08510529838243833,0.9538634506467892,0.26886432039744745,-0.10716501715757067,-0.24617762094733422,2.5788406828971415,-0.2423005849123001,0.10696001350879669,-0.964287281036377,-0.44567233324050903,-0.5921502709388733,-0.4351419508457184,-0.21988198161125183,0.19815558195114136,0.1304592490196228
0.09496629422633214,-0.08800901805595109,0.9537083425374357,0.27143371306768055,-0.11657965111955586,-0.23257295782743473,2.5734048984741724,-0.22891752421855927,0.11631575971841812,-0.9664716124534607,-0.3109051287174225,-0.21355178952217102,-0.22040897607803345,-0.413465678691864,0.4694012999534607,-0.1258411407470703
0.07770028188936536,-0.09812378934160484,0.9528227561779465,0.2765196556979838,-0.14452040236904778,-0.20591923143084867,2.561730177282818,-0.20233550667762756,0.14401784539222717,-0.9686687588691711,-0.19429485499858856,0.006382010877132416,0.050167568027973175,-1.045488715171814,0.7737546563148499,-0.07654154300689697
0.059204764362013676,-0.11504386816163639,0.9516389378681139,0.27864476772244323,-0.1870551788066916,-0.18091998453154398,2.554890022461043,-0.1767958551645279,0.18596625328063965,-0.9665194153785706,-0.07787072658538818,0.08341100811958313,0.17401522397994995,-1.0464487075805664,0.6581102609634399,0.09272739291191101
0.04206682480586401,-0.131720099270467,0.9506331454177529,0.2778070537900855,-0.22905988366844982,-0.15792941226615057,2.5547548764919332,-0.1531657725572586,0.22706206142902374,-0.961760401725769,0.010808613151311874,0.16862736642360687,0.17339982092380524,-1.0301740169525146,0.4001147747039795,0.23830832540988922
0.02525410959648295,-0.14778796514403525,0.9495850852605424,0.27533449711383423,-0.270037771770801,-0.13461386371818684,2.5588517402849944,-0.12934409081935883,0.26676782965660095,-0.9550418853759766,0.11292113363742828,0.26760414242744446,-0.019866522401571274,-0.9773762226104736,0.5591191053390503,0.30257248878479004
0.007924420088708195,-0.16394038860212276,0.9486544188277856,0.27039892146876005,-0.31178707386967197,-0.10916300069559517,2.569077503206396,-0.10369367897510529,0.3067600429058075,-0.9461215138435364,0.12649638950824738,0.30690789222717285,-0.21614818274974823,-0.9473902583122253,0.6237576007843018,0.3802572786808014
-0.007902962315046877,-0.17570689913542878,0.9481836425548124,0.2645985142858778,-0.3441398003638645,-0.0829498462755809,2.582898383009409,-0.0779966413974762,0.3373870551586151,-0.9381292462348938,0.08927896618843079,0.31692972779273987,-0.23509101569652557,-0.48851722478866577,0.3848254084587097,0.3604959547519684
-0.016089313438909708,-0.1784217424617874,0.9489646302592418,0.25956295215069114,-0.35435362894770883,-0.06624835431540001,2.5957426824537655,-0.062086962163448334,0.34698423743247986,-0.9358136057853699,0.07449134439229965,0.42295175790786743,-0.26201319694519043,0.05345997214317322,0.16777437925338745,0.31721246242523193
-0.019261314600774307,-0.17120441783501375,0.9520347253958107,0.2528794046946575,-0.3423765813317907,-0.05301358700984649,2.6131757945472893,-0.049913253635168076,0.33572667837142944,-0.9406360983848572,-0.001381412148475647,0.3264102339744568,-0.29723289608955383,0.575639545917511,0.10916322469711304,0.38023725152015686
-0.01618468155204328,-0.15681145934531898,0.9560147903602735,0.2473540555992621,-0.3129165274866667,-0.049029899994370234,2.6274921007146665,-0.04663030430674553,0.30783483386039734,-0.9502964615821838,-0.036756545305252075,0.2319048047065735,-0.30813777446746826,0.9195117950439453,-0.03175163269042969,0.21920713782310486
-0.013622694268326137,-0.13651250211823482,0.959860276024167,0.2446366219022872,-0.27207540499854593,-0.04220470566583565,2.636706709386884,-0.04064014181494713,0.26873108744621277,-0.9623575210571289,-0.04716205224394798,0.1420947164297104,-0.16499283909797668,1.1074557304382324,0.14332565665245056,0.1549302488565445
-0.010509783004205499,-0.11416665718202881,0.9633284580589995,0.2425982193503548,-0.22700388578935637,-0.03607770544537684,2.644072875173313,-0.03514450043439865,0.22505928575992584,-0.9737110137939453,-0.013908714056015015,0.07147256284952164,-0.11287932097911835,1.1448936462402344,0.11970332264900208,0.12153814733028412
-0.009155011385760865,-0.09115615558085492,0.9661603797527247,0.24112409217783604,-0.1815536641457292,-0.026711618889278102,2.6500142617124904,-0.026269463822245598,0.18055792152881622,-0.983213484287262,0.031046781688928604,-0.0009359661489725113,-0.04135550931096077,1.1124472618103027,0.26544278860092163,0.07128208875656128
-0.009396474184700621,-0.0701232247192065,0.9677936661542754,0.241598398437102,-0.14073407692526738,-0.015853012708794176,2.651198735686101,-0.015695612877607346,0.14026996493339539,-0.9899888634681702,0.07925911992788315,-0.005506793037056923,0.057343777269124985,0.9451016783714294,0.27384334802627563,-0.022208616137504578
-0.010626993556209208,-0.052402517013548616,0.9685707887309138,0.2429231848542509,-0.10687753813280391,-0.004901569313175036,2.6498566068579468,-0.00487357284873724,0.10667417198419571,-0.994282066822052,0.14644739031791687,-0.03036719188094139,0.1986972540616989,0.7483968734741211,0.30480796098709106,-0.034801825881004333
-0.011648828665081337,-0.03712263011778806,0.9691995186265521,0.24318402486891882,-0.07770225467126375,0.00453852669636277,2.6500949313288444,0.004524826537817717,0.07762408256530762,-0.9969724416732788,0.10784495621919632,-0.1325971782207489,0.2864566743373871,0.7438920736312866,0.1472158581018448,0.02308013290166855
-0.00907861421922938,-0.023201999387508575,0.9698766332373739,0.24231908231252036,-0.04942611875901782,0.006373523773318968,2.6520841382549634,0.00636570667847991,0.049405988305807114,-0.9987584948539734,0.05022817105054855,-0.19718794524669647,0.1870129257440567,0.6878930926322937,0.03390079736709595,0.056337110698223114
-0.007359824775943111,-0.010992724140787752,0.9702217183580651,0.24185712207735727,-0.02489338240012668,0.008966884717041466,2.6531020030001558,0.00896399561315775,0.024890802800655365,-0.9996500015258789,0.012407131493091583,-0.17534175515174866,0.15325938165187836,0.48189160227775574,0.10309001803398132,0.01758955419063568
-0.009312498274488464,-0.004839386251250842,0.970294592478558,0.2416987053700404,-0.013893345130683793,0.015734554389535308,2.653442367384321,0.01573239639401436,0.013892889022827148,-0.9997797012329102,0.0024171248078346252,-0.13042528927326202,0.21618416905403137,0.007677510380744934,0.20373380184173584,0.004196736961603165
-0.017495933645824354,-0.008983186646169492,0.9699491754347264,0.2425115114155365,-0.02591530028518964,0.029597538493043456,2.6519719127549313,0.029583290219306946,0.025912391021847725,-0.9992263913154602,0.024258948862552643,-0.07765144109725952,0.2807362973690033,-0.6372605562210083,0.43711718916893005,-0.07436885684728622
-0.03244513879312641,-0.025420078029612762,0.9691249329833685,0.2431008635852584,-0.06509129959181771,0.05065639062746033,2.651693253476701,0.05052751302719116,0.06504534184932709,-0.9966022372245789,0.03165889531373978,-0.050334855914115906,0.3768081068992615,-1.2858619689941406,0.6156195402145386,-0.01437370479106903
-0.0527757334824782,-0.0508660709296062,0.9671818918397772,0.243282597057693,-0.12439287297925812,0.07801916297184026,2.6536032757190267,0.0773378238081932,0.12407231330871582,-0.9892547130584717,0.013206824660301208,-0.1210545003414154,0.5441505312919617,-1.6265883445739746,0.6293513774871826,-0.10130660235881805
-0.07259615033888285,-0.08049887353462225,0.9634088217209833,0.24513910024572338,-0.1918741238150903,0.10246909152979398,2.6531376169854997,0.10041271150112152,0.19069895148277283,-0.9764994382858276,0.0197037011384964,-0.20620450377464294,0.6301214694976807,-1.6797406673431396,0.563579797744751,-0.2524864077568054
-0.08117896960413037,-0.11532993132553371,0.9579851111391334,0.24974692520908814,-0.2645936801060811,0.10163574176565347,2.64508154693768,0.09792990982532501,0.26151710748672485,-0.9602179527282715,-0.060072336345911026,-0.27490726113319397,0.0627509132027626,-1.9297354221343994,-0.2813400626182556,-0.5140218734741211
-0.08722697937003072,-0.1491123257974666,0.9508509147921733,0.25698166976742914,-0.3346076999755563,0.09462258892505265,2.629666860530887,0.08924145251512527,0.3283986449241638,-0.9403139352798462,-0.04565461724996567,-0.2780158817768097,-0.19311761856079102,-1.3031206130981445,0.3459203243255615,-0.5381944179534912
-0.09481694462659453,-0.16990578308573484,0.9437832935675347,0.26723559091377175,-0.3805006981516951,0.09509810993877095,2.6080587164442646,0.08816356211900711,0.371385395526886,-0.9242835640907288,-0.06486470252275467,-0.2588666081428528,0.020440662279725075,-0.9362105131149292,-0.03882354497909546,-0.7074501514434814
-0.09299991262427455,-0.1850369316186407,0.9376089979386322,0.27928776208394307,-0.4103519227923739,0.07754718756850272,2.5787309748833365,0.07103802263736725,0.3989320695400238,-0.9142246842384338,0.00242620799690485,-0.09022895991802216,-0.12223074585199356,-0.4681839048862457,-0.039644062519073486,-0.7584743499755859
-0.09511436182686184,-0.1920220472537313,0.9320770580244436,0.2920838713450867,-0.42631828499491403,0.07159893563415638,2.5497439143139093,0.06513475626707077,0.4135214388370514,-0.9081615805625916,-0.019833173602819443,-0.026579750701785088,0.0181582011282444,-0.2544121742248535,0.19394028186798096,-0.5661489963531494
-0.09478062451357622,-0.19697997814856832,0.9285837912921628,0.29991260438380235,-0.43639672473435265,0.06389781304061619,2.5309602644044085,0.057869959622621536,0.4226766526699066,-0.9044310450553894,-0.03573346883058548,-0.04548702389001846,0.07705269753932953,-0.1742572784423828,-0.1737537682056427,-0.3340621888637543
-0.09025015569647266,-0.20010607589891824,0.927305575305753,0.3031779225330476,-0.4398930164589343,0.050910138194077255,2.5209964765695023,0.04604347050189972,0.42584267258644104,-0.903624951839447,-0.04154224693775177,-0.04041413962841034,-0.01724318414926529,-0.09266583621501923,-0.22888752818107605,-0.1319536566734314
-0.08428945702578111,-0.20214731256603466,0.9275314713279819,0.3028483075661162,-0.4401219842066879,0.03750444383108927,2.5187886122127052,0.03392231836915016,0.4260498285293579,-0.9040635228157043,-0.05203213170170784,-0.020924467593431473,-0.062040895223617554,0.025212645530700684,-0.30578672885894775,0.035072676837444305
-0.07744065661997418,-0.20158878116635753,0.9294942179478951,0.29900749491040335,-0.43461572907862006,0.025810306011426032,2.524824275440767,0.023408183827996254,0.4210619032382965,-0.9067298173904419,-0.04484252631664276,-0.01928563043475151,0.013861220329999924,0.12608455121517181,-0.4114205837249756,0.2656201422214508
-0.06829083610362505,-0.19949356909169808,0.9330855070055512,0.29135915738822554,-0.4247394943844885,0.012285739738332913,2.538921324271062,0.011193833313882351,0.4120834469795227,-0.9110773801803589,-0.021196605637669563,-0.02439693734049797,0.05421246960759163,0.2407025694847107,-0.4080502390861511,0.44406312704086304
-0.059663760075549674,-0.1967594327978826,0.9377971669476309,0.27975416840220846,-0.4141623572365555,0.0019842275846047586,2.5621984754271776,0.0018164773937314749,0.40242326259613037,-0.9154519438743591,0.0013574697077274323,-0.055958762764930725,0.1317005306482315,0.27737826108932495,-0.48564988374710083,0.6182183027267456
-0.05194989553219556,-0.19244509049018335,0.9431338465018175,0.2660162460277742,-0.4013288926119771,-0.004775061767958635,2.590793588968242,-0.004395621828734875,0.390641987323761,-0.9205321669578552,-0.005375027656555176,-0.11682940274477005,0.19805830717086792,0.41890332102775574,-0.39141619205474854,0.6930919885635376
-0.0424595714599878,-0.18527075094255835,0.9490360853974342,0.2514008816225201,-0.38224674469418746,-0.01354076473806532,2.621065671591482,-0.012563120573759079,0.37300601601600647,-0.9277438521385193,0.020719319581985474,-0.15839126706123352,0.1696084439754486,0.5103965997695923,-0.4236401617527008,0.6811509132385254
-0.03700523266068083,-0.17404722097395633,0.9548063307416228,0.2380822000914854,-0.35755333084730834,-0.013034105388507602,2.65050126605608,-0.012209421023726463,0.3499833643436432,-0.9366763830184937,0.032902657985687256,-0.14626473188400269,0.43532708287239075,0.7238824963569641,-0.18389664590358734,0.6840731501579285
-0.027568803528336835,-0.16103524234323108,0.9606914082061289,0.22445418862315314,-0.32761543979077157,-0.020406561845146002,2.6791775561108953,-0.019319836050271988,0.32178622484207153,-0.9466152191162109,0.052209727466106415,-0.1594284474849701,0.46640005707740784,0.7592748403549194,-0.5307886600494385,0.5790247917175293
-0.016511757953745557,-0.14901995995600134,0.9657057570749461,0.21197369513521913,-0.2992660764539355,-0.03274670464686383,2.7045061448121217,-0.031285617500543594,0.2948189973831177,-0.9550408124923706,0.02650769054889679,-0.08490772545337677,0.40891358256340027,0.7032996416091919,-0.6002514362335205,0.6040201187133789
-0.008264615748225651,-0.13405154544423806,0.9707114277506336,0.1992014109908386,-0.26669360825620997,-0.03874031226814488,2.731591642775299,-0.03736139461398125,0.26354336738586426,-0.9639237523078918,-0.006583496928215027,-0.1403789222240448,0.4449837803840637,1.0402045249938965,-0.16123336553573608,0.5522504448890686
0.0009046891977451399,-0.11422536299611812,0.9754084889190701,0.1884936974595542,-0.22436951114586112,-0.0459951011353838,2.754624216047379,-0.04482639953494072,0.22249172627925873,-0.973903477191925,-0.06144612282514572,-0.045815322548151016,0.5399729013442993,1.0560595989227295,-0.5738697052001953,0.5349813103675842
0.011844814879387364,-0.09471255268687523,0.9797362876985902,0.17608499757078838,-0.18242540217079134,-0.05755070876791255,2.780670353037132,-0.05656450241804123,0.18141525983810425,-0.9817784428596497,-0.12507334351539612,-0.05366722121834755,0.510347843170166,1.1890889406204224,-0.3434578776359558,0.6072670817375183
0.023569125743611075,-0.07284428897581441,0.9835335277453363,0.16370731261687171,-0.1359915012033773,-0.07092607033347989,2.806888474801497,-0.07021233439445496,0.13557271659374237,-0.9882764220237732,-0.20668818056583405,-0.09676918387413025,0.3933010399341583,1.245668649673462,-0.5012822151184082,0.5555850267410278
0.032664793463087496,-0.04895446941565382,0.986331101012342,0.1539074745376991,-0.08662421353167246,-0.07988970507111617,2.8285442712535644,-0.07950551807880402,0.08651591092348099,-0.9930729269981384,-0.2956705391407013,-0.1198631301522255,0.36419543623924255,1.2467598915100098,-0.22459471225738525,0.3961448669433594
0.043658883847293245,-0.02595438112343802,0.9883100211432463,0.14374832327031706,-0.0387598714913118,-0.09396752090066617,2.850898461463878,-0.09375882148742676,0.03875015676021576,-0.9948405623435974,-0.2853582203388214,-0.27878525853157043,0.45453891158103943,1.2632582187652588,-0.5125110745429993,0.456786185503006
0.056421744588091176,-0.002861646116355615,0.9890830833339437,0.13609926090292673,0.009697255928628343,-0.11263380814109185,2.8686538974188927,-0.11239051818847656,-0.00969711598008871,-0.9936168193817139,-0.23229250311851501,-0.27003178000450134,0.6119712591171265,1.1614547967910767,-0.6143526434898376,0.2359078824520111
0.07853391770357908,0.011335874727210314,0.9883421919923604,0.129937217433363,0.04282949699309275,-0.15302719902510212,2.883436270435659,-0.15229086577892303,-0.042816419154405594,-0.9874078631401062,-0.21625249087810516,-0.07759545743465424,0.5698472261428833,0.5014989376068115,-1.5101579427719116,0.38045912981033325
0.11681959360981994,0.010607007467896503,0.9863367818730738,0.11567338513580377,0.04796839240420374,-0.2302855879352609,2.9136564598847667,-0.22799302637577057,-0.04795001447200775,-0.972481369972229,-0.1308504045009613,-0.1931021511554718,-0.07001839578151703,0.4223964810371399,-1.7862236499786377,0.91420978307724
0.15658956765437979,0.016463609076409605,0.9825716082829431,0.09880052980449877,0.06333795447000436,-0.3100218457335137,2.95106102513175,-0.30446770787239075,-0.0632956251502037,-0.9504173398017883,-0.47693780064582825,0.2782696783542633,0.02788534015417099,0.335674524307251,-3.0869386196136475,0.8329296708106995
0.20174663180617258,0.0020830045447746063,0.9759514331768387,0.08253946958717823,0.03737864590534191,-0.40467603503418115,2.980516448847461,-0.3934459686279297,-0.03736995533108711,-0.9185879230499268,-0.41374337673187256,0.5033328533172607,-0.5409131646156311,-0.5782679319381714,-1.6841561794281006,1.477558970451355
0.2444258730189861,-0.022398992263908967,0.9683034727166262,0.0462896429853033,-0.02075076035243182,-0.4955697078755623,3.0408058299857736,-0.47543054819107056,0.020749259740114212,-0.8795085549354553,-0.7291578054428101,-0.3563465178012848,-1.7446558475494385,-0.4310147762298584,-2.4246480464935303,2.245206117630005
0.28823821965039476,-0.04094162126216326,0.956660850449552,-0.006528342431206868,-0.08219043317078567,-0.5857494547117575,3.130443728817946,-0.5509579181671143,0.08209791779518127,-0.8304850459098816,-1.106188416481018,0.2718227803707123,-1.6057562828063965,-1.104848027229309,-2.996365547180176,3.2834434509277344
0.3276416431754779,-0.11879838645650391,0.9348729990421705,-0.06745610482523517,-0.26957900020195996,-0.6673838293256807,-3.091483465381188,-0.5965793132781982,0.2663256525993347,-0.7570757865905762,-0.7744441628456116,1.1743626594543457,-0.7982707023620605,-3.733562469482422,-1.543195366859436,5.218862533569336
0.33912276811608516,-0.2125270489104088,0.9051285036678272,-0.14342363449666268,-0.5029416706671297,-0.6829508451256189,-3.009397539046853,-0.5529366135597229,0.4820050299167633,-0.6796559691429138,0.09694954007863998,-0.02670294977724552,-0.6539839506149292,-2.386056900024414,0.30664241313934326,4.577701091766357
-0.30806433696006164,0.25723578659873203,-0.8924869024318016,0.20589628619503425,-0.6261355029204206,-0.5798468001296234,-2.8806766535157458,-0.44395899772644043,0.5860177874565125,-0.677852213382721,0.039332181215286255,-0.3175983726978302,-0.22451238334178925,0.47760525345802307,1.2246675491333008,3.130690336227417
-0.2661540752807721,0.2503089448723388,-0.8993848726347071,0.2400297268210556,-0.6162976679996385,-0.4549657643376867,-2.7670804926343977,-0.35858672857284546,0.5780179500579834,-0.7330148816108704,0.1297604888677597,-0.15836931765079498,-0.009575368836522102,1.8039129972457886,1.4737846851348877,1.0408953428268433
-0.23093857463446976,0.2278117256951056,-0.9118891993283511,0.2514504245292158,-0.5605089145247969,-0.3704196312922997,-2.7112216408712557,-0.30661410093307495,0.5316173434257507,-0.7895383834838867,0.19129228591918945,-0.30760103464126587,-0.04841776564717293,1.8419991731643677,1.2297072410583496,-0.1898971050977707
-0.20796325939943508,0.19755809458718362,-0.9263144154042535,0.24426129666707452,-0.486569828746725,-0.33278987278132804,-2.709268557097181,-0.28876715898513794,0.4675965905189514,-0.8354441523551941,0.27709513902664185,-0.28193050622940063,-0.019958708435297012,1.71086847782135,0.6580026149749756,-1.0740755796432495
0.19171900749496468,-0.16000747166107368,0.9435881300088069,-0.217446458981764,-0.3955757502943484,-0.32222397258154667,-2.753725953313388,-0.29222145676612854,0.38533955812454224,-0.875282883644104,0.2541028559207916,-0.384490042924881,-0.1474563032388687,1.744818925857544,0.8700258731842041,-1.9566624164581299
0.17245155389335654,-0.11979258133322794,0.9617934159322629,-0.17568019716498945,-0.2952970736411487,-0.30756521761005506,-2.8263584355847713,-0.28963518142700195,0.2910240888595581,-0.9118204116821289,0.1298220455646515,-0.37650054693222046,-0.008904635906219482,1.9088547229766846,1.0115573406219482,-2.824718952178955
0.15796037061601234,-0.0756292868753801,0.9777064870042246,-0.11583898083394256,-0.18554522284493788,-0.3009674902905934,-2.9339448856108907,-0.2913561165332794,0.1844824254512787,-0.9386574625968933,-0.006757654249668121,-0.25587594509124756,0.01801319792866707,1.6506634950637817,0.6018901467323303,-3.665531635284424
0.15255664007132338,-0.0352236361372796,0.9867246384919928,-0.04313002237572361,-0.08276606381662663,-0.3036949351046383,-3.0669000540795324,-0.29802441596984863,0.08267159014940262,-0.9509715437889099,-0.023617632687091827,-0.1660727560520172,0.08415015786886215,1.2871580123901367,0.07486867904663086,-4.164066314697266
0.15437640546273448,-0.002724184973180032,0.9874100080205815,0.03438044698309051,0.005235308549722991,-0.309998400265855,3.072801177982151,-0.3050529360771179,-0.005235297605395317,-0.9523209929466248,0.08772560954093933,0.1292525827884674,-0.03283694386482239,0.7550155520439148,-0.03998592495918274,-3.763118028640747
0.15877703638781432,0.01921884727951323,0.9824029541556055,0.09646161236089834,0.06844651450812518,-0.31412225402543675,2.956684900578922,-0.3082582950592041,-0.06839309632778168,-0.9488409757614136,0.17713025212287903,0.30948519706726074,-0.015318594872951508,0.38906776905059814,-0.332635760307312,-2.607611656188965
0.16287253961539672,0.027327256126437834,0.9772276977199275,0.1332358911878742,0.09696270447989214,-0.3178375028084346,2.8861344097465516,-0.31104516983032227,-0.09681085497140884,-0.9454514980316162,0.21809685230255127,0.20582598447799683,-0.12099519371986389,-0.011631309986114502,-0.005687981843948364,-1.248745322227478
0.16193276643270044,0.029833060844193474,0.9748063015688669,0.1504672073026354,0.10709867551910056,-0.31361142591070623,2.852246420964789,-0.3067283630371094,-0.10689406841993332,-0.9457755088806152,0.13708359003067017,0.013874251395463943,0.08327401429414749,-0.06403078138828278,-0.06511008739471436,-0.6260578632354736
0.16506308330221564,0.029484463229392573,0.9724208886926861,0.16211900491086145,0.1110906982457515,-0.31876437655487555,2.8290728161209633,-0.31146159768104553,-0.1108623594045639,-0.9437696933746338,0.1158236712217331,-0.12332060188055038,0.12193554639816284,-0.11958417296409607,-0.34679099917411804,-0.5726979970932007
0.1719951897031765,0.025653329076895354,0.9693334940737814,0.17364400664707907,0.10968493030166779,-0.3325922590977703,2.8055060254439423,-0.32453230023384094,-0.10946514457464218,-0.9395191073417664,0.16115111112594604,-0.19718235731124878,0.10471223294734955,-0.24240997433662415,-0.43219485878944397,-0.5332362651824951
0.17957428319720936,0.021069684835270677,0.9661542624468937,0.18399767797485872,0.10699968909640437,-0.3481832557342083,2.7840486630533166,-0.3392393887042999,-0.10679564625024796,-0.9346182942390442,0.1959303468465805,-0.17446663975715637,0.18498411774635315,-0.23282673954963684,-0.4961879551410675,-0.40467947721481323
0.1883664577400787,0.015297985827541584,0.9631257612497148,0.19150116612990553,0.10178823879590215,-0.36702413006625495,2.767953949370817,-0.35698202252388,-0.10161257535219193,-0.9285681247711182,0.21084648370742798,-0.14849504828453064,0.14580687880516052,-0.3204885721206665,-0.5314609408378601,-0.21445892751216888
0.1975560281633277,0.006490688600131805,0.9605727381144687,0.19552346243706786,0.08984405508891016,-0.38819937857566944,2.757653987878502,-0.376995712518692,-0.08972325176000595,-0.9218589663505554,0.18606460094451904,-0.17422720789909363,0.1400529146194458,-0.44824936985969543,-0.6130309104919434,-0.07939848303794861
0.20948336378689486,-0.006585956099606477,0.9573016522531594,0.19911526978623223,0.0708724958175579,-0.4166685337510036,2.7464363657209363,-0.4037002921104431,-0.07081319391727448,-0.9121466875076294,0.1463851034641266,-0.2108852118253708,0.12566818296909332,-0.6039767265319824,-0.865804135799408,-0.09082740545272827
0.2262579816923124,-0.022895189918808578,0.952045335720161,0.20467716959074717,0.04904482870309998,-0.4563982808673199,2.729458117424142,-0.4401879608631134,-0.04902518168091774,-0.8965662717819214,0.09217984974384308,-0.18251900374889374,0.09669310599565506,-0.7478090524673462,-1.174710988998413,-0.21040189266204834
0.24884424934673532,-0.041109353941025585,0.9436599671152198,0.21422537222065507,0.029035080136738344,-0.5091869518725587,2.7026854379418803,-0.4872620701789856,-0.02903101220726967,-0.8727731108665466,0.01220548152923584,-0.15375933051109314,-0.023769430816173553,-0.7678424119949341,-1.3729424476623535,-0.4800156354904175
0.2718144501812077,-0.057602679930129325,0.9336387103151238,0.2260921669997788,0.015350655396332746,-0.562925876418989,2.670854077128608,-0.5336000323295593,-0.01535006333142519,-0.8455976843833923,-0.10498963296413422,-0.13069067895412445,-0.10482481122016907,-0.589590311050415,-1.2955201864242554,-0.5524484515190125
0.2919124975747399,-0.06770776727955549,0.9240534809179437,0.23733500940887486,0.013431318469267216,-0.6085470297845224,2.6429964592371875,-0.5716243982315063,-0.013430925086140633,-0.8204054832458496,-0.17277534306049347,-0.09382244944572449,-0.1231103464961052,-0.2549731731414795,-0.9753159284591675,-0.5413525104522705
0.30552562315361037,-0.07250277111190599,0.9167887004428525,0.24677088890171722,0.017851164675744827,-0.6386138001206285,2.621620880203064,-0.5959880352020264,-0.017850227653980255,-0.802794873714447,-0.2224835306406021,-0.13855379819869995,-0.12035104632377625,-0.21077296137809753,-0.5789371728897095,-0.45644611120224
0.3123050402676742,-0.0746818317339104,0.9117751675255116,0.2560353025839142,0.023738381095523325,-0.6534353136163847,2.6021181940358047,-0.6077463626861572,-0.02373616211116314,-0.7937763929367065,-0.24232585728168488,-0.15801018476486206,-0.022133801132440567,-0.20717157423496246,-0.33442631363868713,-0.4791543483734131
0.314025053062992,-0.07857051855480217,0.9084968830540695,0.26428833573796073,0.02322626310839894,-0.658937643268155,2.5833465566391474,-0.6121121048927307,-0.023224184289574623,-0.7904298901557922,-0.12502054870128632,-0.06766290962696075,-0.05014772713184357,-0.35282889008522034,0.07871897518634796,-0.19913965463638306
0.3094196392144642,-0.08721881483297537,0.9091887645442035,0.2646284515068753,0.005165769951159788,-0.6545609465019893,2.576876645724038,-0.6088029146194458,-0.005165756214410067,-0.7933047413825989,-0.06649678945541382,0.14733600616455078,-0.06819877028465271,-0.5375142097473145,0.16672217845916748,0.6349830031394958
0.29588289161158005,-0.1000828514322252,0.9159687428438072,0.2518692763334907,-0.0343046355663565,-0.6345352701917667,2.593639977432094,-0.5924545526504517,0.03429789841175079,-0.8048734664916992,-0.06877835094928741,0.11433152854442596,-0.19883324205875397,-0.5917258262634277,0.8336188793182373,1.1992392539978027
0.27232762149589906,-0.11369903045253832,0.9261466885540228,0.23486702564087542,-0.08277690322858688,-0.5940908201917243,2.619520996400823,-0.5578389763832092,0.08268240094184875,-0.8258203864097595,-0.11494801193475723,-0.004345007240772247,-0.23233023285865784,-0.666959822177887,1.083106279373169,1.061889410018921
0.24414133552462053,-0.12567740751314052,0.9342478264860595,0.22755492216593093,-0.12403435471733289,-0.5437497072830572,2.629137766131798,-0.5133740901947021,0.1237165629863739,-0.8492003679275513,-0.15896302461624146,0.11793207377195358,-0.23954607546329498,-0.8154675960540771,1.2786779403686523,0.6127514839172363
0.21759824650523943,-0.1361603305184036,0.9391063186838657,0.22845294436620706,-0.15695982703713637,-0.4969755171403474,2.624428100603117,-0.4709082543849945,0.1563161313533783,-0.868222713470459,-0.1996215432882309,0.08785233646631241,-0.3069773316383362,-0.6846388578414917,1.1521763801574707,-0.05094371736049652
0.1978805549784907,-0.14126767812217564,0.9410259183777074,0.23528055554400723,-0.17362928931942065,-0.46184035317711725,2.610667294624902,-0.4388965368270874,0.17275819182395935,-0.8817734718322754,-0.18217092752456665,0.11216291785240173,-0.35196253657341003,-0.3428605794906616,0.7676394581794739,-0.19608676433563232
0.18510731436719716,-0.13764455759126676,0.9417353964755022,0.24479303115700207,-0.16943304823701566,-0.4357351806952433,2.595377317695203,-0.4160330891609192,0.16862353682518005,-0.8935785293579102,-0.23866911232471466,0.10234551876783371,-0.3005760908126831,0.1344572901725769,0.5156888961791992,-0.5383881330490112
0.18120135388648376,-0.12885335202928216,0.9403986824608614,0.2573193407987902,-0.1496517855971511,-0.42433811938682475,2.5751182176893637,-0.40711596608161926,0.14909382164478302,-0.9011257886886597,-0.21141111850738525,0.01666460931301117,-0.2981669008731842,0.4412280023097992,0.401504248380661,-0.841149091720581
0.18279070965988237,-0.11435121355896885,0.9369294795390126,0.27509021439531933,-0.11395665735896027,-0.42035508986107617,2.5460923791447803,-0.4054378271102905,0.11371017247438431,-0.9070227146148682,-0.23134997487068176,0.0853729248046875,-0.15492816269397736,0.49741330742836,-0.06661566346883774,-1.127408504486084
0.1867705564794815,-0.10031433454037823,0.9305493678975233,0.29854922313689813,-0.07524545712319045,-0.42097695494459203,2.5045955469069483,-0.40749597549438477,0.07517446577548981,-0.9101076126098633,-0.13265740871429443,0.11173112690448761,-0.22251683473587036,0.42344212532043457,0.32281070947647095,-1.5068516731262207
0.18496976777566093,-0.08573013473465682,0.9233422556509318,0.3253854208811172,-0.03795269105299073,-0.40896275547326544,2.4560993158276365,-0.39737147092819214,0.03794357553124428,-0.916873037815094,-0.1358356773853302,0.22715473175048828,-0.09353426098823547,0.27894628047943115,0.4180322289466858,-1.4257138967514038
0.178481435707638,-0.07174836792690518,0.9155009524936515,0.35334770581956326,-0.005239410648056025,-0.38710506211091006,2.4038746112380234,-0.3775041103363037,0.005239379592239857,-0.9259930849075317,-0.11200636625289917,0.2201894223690033,0.007853023707866669,0.19465333223342896,0.78471440076828,-1.588382363319397
0.16762911663367924,-0.05736153115753874,0.9066868156762954,0.3827913204828765,0.024318450625294807,-0.3554284900118969,2.346989629091798,-0.3478892147541046,-0.024316061288118362,-0.9372202754020691,-0.04617907851934433,0.23910683393478394,0.16663390398025513,0.1579650640487671,0.779853105545044,-1.6161381006240845
0.15514351545584032,-0.04243750942029302,0.8965956651092042,0.41260843364331257,0.051951838294582865,-0.3190296522975312,2.2873539603016373,-0.31322216987609863,-0.051928479224443436,-0.9482591152191162,-0.014685152098536491,0.25025060772895813,0.3142975866794586,0.16123121976852417,0.8342947959899902,-1.6217442750930786
0.14347982292843708,-0.028785982732199792,0.8860349744393113,0.43991701002307326,0.07529879048475885,-0.2841875183402323,2.2306812101213165,-0.2795831561088562,-0.07522766292095184,-0.9571698307991028,0.06432320177555084,0.25340574979782104,0.45016974210739136,0.11292725801467896,0.6931757926940918,-1.4008262157440186
0.1324729577421358,-0.017947187709872144,0.8765922036310411,0.4622931794922926,0.09114410036976153,-0.2525567752875678,2.1825570098380136,-0.248843252658844,-0.09101796895265579,-0.9642576575279236,0.07195274531841278,0.18612714111804962,0.4218379557132721,0.10080242156982422,0.8118712306022644,-1.1425316333770752
0.12107560959078553,-0.004914731264399417,0.8689003036339739,0.47992571518944627,0.10788292226844746,-0.21810576860496647,2.1441444608852662,-0.21512266993522644,-0.107673779129982,-0.9706330895423889,-0.008196149952709675,0.1721024364233017,0.46213656663894653,0.23334814608097076,0.6732625961303711,-0.8953000903129578
0.11246081302483663,0.005280871484071357,0.8629541455650026,0.4925798027971633,0.1201953499119873,-0.19143439545961846,2.1157924714392706,-0.18889454007148743,-0.11990615725517273,-0.9746493697166443,-0.030083900317549706,0.13113456964492798,0.40945860743522644,0.10319499671459198,0.5743181109428406,-0.6377619504928589
0.10407653357193691,0.012671116376167451,0.8591807316783133,0.5008153539982023,0.12635576986353353,-0.1682776307637567,2.096763122086572,-0.1661493182182312,-0.12601982057094574,-0.9780150651931763,-0.03932860493659973,0.13118503987789154,0.2589431703090668,0.03663341701030731,0.5268838405609131,-0.2811640202999115
0.09965043970803927,0.020913877208000843,0.8572143610878242,0.5047930153442246,0.1368881533605147,-0.15172455048782463,2.0876135368956423,-0.14972920715808868,-0.1364610493183136,-0.9792647957801819,-0.1095147430896759,0.09282289445400238,0.2476608008146286,0.32706141471862793,0.2643580436706543,-0.20085600018501282
0.10175183185213826,0.030713768120963564,0.856329552038649,0.50537415031272,0.15608065214787867,-0.14549753786838646,2.086680261672452,-0.14322230219841003,-0.15544772148132324,-0.9774064421653748,-0.07884517312049866,0.10283981263637543,0.18248319625854492,0.5655604600906372,0.25954246520996094,0.008371926844120026
0.10337354911983596,0.040879211022573754,0.85527121328969,0.5061165229550016,0.17546269533023065,-0.13799517973872547,2.08507002573276,-0.13544555008411407,-0.17456375062465668,-0.9752855896949768,-0.055270783603191376,0.12018729746341705,0.18436115980148315,0.33815354108810425,0.1620350480079651,-0.2531217634677887
0.10013702017448917,0.04609871818776784,0.8525863288572428,0.5108268144193931,0.18191329097637865,-0.12606221361907355,2.073517655698764,-0.12365397810935974,-0.18091163039207458,-0.9756949543952942,-0.010534977540373802,0.11838207393884659,0.07517344504594803,-0.023518040776252747,0.31621140241622925,-0.3588190972805023
0.09510537443876863,0.04781678688512299,0.8483302849669762,0.5186561834800932,0.18076568777385107,-0.11385758785351963,2.0544254012984013,-0.11176058650016785,-0.17978285253047943,-0.9773370623588562,0.020831266418099403,0.17024445533752441,0.0656547024846077,-0.15791520476341248,0.2967459559440613,-0.4805360734462738
0.08759379178078613,0.044933607545255085,0.8456452060016212,0.5245879197401507,0.168696067546723,-0.10263783202301109,2.0397949115343526,-0.10100327432155609,-0.1678970754146576,-0.980616569519043,0.0332086905837059,0.20804628729820251,0.13035863637924194,-0.4225969612598419,0.17209947109222412,-0.18896865844726562
0.08196436867548086,0.03944294432281128,0.8455422501948766,0.5261030220744259,0.1535474046016948,-0.09842147575229149,2.0359918801594636,-0.09710656106472015,-0.15294475853443146,-0.9834522008895874,-0.020850468426942825,0.13686834275722504,0.21874834597110748,-0.27125585079193115,-0.03329858183860779,0.03302183002233505
0.08338667210157882,0.03760075961901907,0.8458117954721199,0.5255808248564312,0.1518420096805161,-0.10289770735945288,2.037425202898943,-0.10153437405824661,-0.15125921368598938,-0.9832656979560852,-0.005292366724461317,0.0981007069349289,0.2738982141017914,0.14614668488502502,-0.15179577469825745,0.08354251086711884
0.09139516184594804,0.036555916284506065,0.8473241259298256,0.5218739070065989,0.15799947879513107,-0.11847676383367763,2.0469133156135597,-0.11672748625278473,-0.15734292566776276,-0.9806211590766907,-0.02807493694126606,0.07913433015346527,0.18054811656475067,0.16441302001476288,-0.5207465887069702,0.37896376848220825
0.10066093615322609,0.03100582510652453,0.851963526043322,0.5128977176122199,0.1567300664322003,-0.14192293785291812,2.068951225878828,-0.13971325755119324,-0.1560892015695572,-0.9778120517730713,-0.004326995462179184,-0.024432402104139328,0.05961375683546066,-0.15683482587337494,-0.513874888420105,0.7294140458106995
0.1058033189663015,0.019220351019789587,0.859639027183136,0.49945658851119756,0.13918238959732795,-0.16504288342167467,2.1004482612546362,-0.16270585358142853,-0.13873346149921417,-0.976872444152832,0.02422785758972168,-0.20524166524410248,0.13380028307437897,-0.46876513957977295,-0.55971759557724,0.9095187783241272
0.11031885861000185,-0.001069593936955919,0.8672110086842072,0.48556544395702994,0.1054743794381824,-0.19468066663280845,2.1310527239238395,-0.19237816333770752,-0.10527893155813217,-0.9756572246551514,0.09499359130859375,-0.2491077184677124,-0.08221053332090378,-0.9474867582321167,-0.5327469110488892,1.0258997678756714
0.11298643163014327,-0.0266786148957065,0.8751534393769675,0.4697113634940285,0.05948132677846485,-0.2251147162822622,2.163139247170212,-0.22282342612743378,-0.05944626405835152,-0.9730446338653564,0.11649148166179657,-0.6150214672088623,-0.25963762402534485,-0.9076539278030396,-0.7706564664840698,0.8141188025474548
0.11876819761435659,-0.049568330287623155,0.8790173770536276,0.45909210003866274,0.021909988103169544,-0.25719883568532986,2.1818033249260007,-0.2543114721775055,-0.021908240392804146,-0.9668741822242737,0.06272324919700623,-0.5598992109298706,-0.6443431973457336,-0.6337757706642151,-0.6402842402458191,0.7686004638671875
0.11981493697767234,-0.05828284068085793,0.884245120553238,0.4476137307148723,0.004188999155041402,-0.267239841156668,2.20494920648148,-0.26406794786453247,-0.004188992083072662,-0.9644950032234192,0.018063940107822418,-0.5747660398483276,-0.6167234778404236,-0.09683515131473541,0.011499464511871338,0.5751321911811829
0.11559368222924422,-0.057871160801560226,0.8884175701037574,0.4404579971684115,-0.0009991887630438514,-0.25926550679323307,2.220933575848415,-0.25637054443359375,0.0009991835104301572,-0.9665780663490295,-0.038799140602350235,-0.5259438753128052,-0.5717577338218689,0.05924432724714279,0.48479562997817993,0.3072313368320465
0.10999654316506335,-0.049443748282857206,0.8905578013544175,0.4385917814605088,0.008422227689437308,-0.24164101980990543,2.2273702047839676,-0.23928779363632202,-0.008422133512794971,-0.9709121584892273,-0.07047953456640244,-0.304730623960495,-0.1288241595029831,0.24075262248516083,0.23688799142837524,-0.08649521321058273
0.10881626591431301,-0.043067982820607385,0.8910441775698441,0.4385709465175712,0.0186974442144542,-0.23386336138716834,2.22901456570695,-0.2316969335079193,-0.018696360290050507,-0.9726083278656006,-0.11762777715921402,0.06275555491447449,0.03055613487958908,0.13639724254608154,0.19072094559669495,0.2250053435564041
0.10441773419857986,-0.040323989344676084,0.8945924457146404,0.4326374770585967,0.018203983074543312,-0.2236095170768347,2.2427302019611473,-0.22171396017074585,-0.01820298470556736,-0.9749418497085571,-0.040163762867450714,0.14710772037506104,0.18785220384597778,-0.08564866334199905,0.34815895557403564,0.5017947554588318
0.09394099553767912,-0.04175141054740813,0.8995792784111811,0.42448690861797844,0.004636054637901235,-0.20591487923277818,2.2602844357806036,-0.20446059107780457,-0.004636043682694435,-0.9788638353347778,-0.07595065981149673,0.22907406091690063,0.1668560951948166,-0.507027804851532,0.47761040925979614,0.5675858855247498
0.08113547283816464,-0.04956825939137077,0.9060645441598506,0.4123189946521468,-0.022918697870113584,-0.18907777015095897,2.285301966234131,-0.18790382146835327,0.022916685789823532,-0.981920063495636,-0.08283327519893646,0.12311026453971863,0.04834717512130737,-0.5702434182167053,0.4480932652950287,0.7136270999908447
0.07186031137196656,-0.061212999409465396,0.9108047810578467,0.4019000630488307,-0.05377076515467353,-0.1813576554262621,2.3055811786571105,-0.18010444939136505,0.0537448525428772,-0.9821781516075134,0.0005205124616622925,0.21306326985359192,-0.1815582662820816,-0.6490839719772339,0.2221372127532959,0.6522200107574463
0.05699982880435603,-0.06722955241767027,0.9162762359987172,0.39072891015766836,-0.07874005996900561,-0.15813846425898906,2.329185762588218,-0.15699222683906555,0.07865871489048004,-0.9844624400138855,-0.021739237010478973,0.25369271636009216,-0.2007569670677185,-0.44713735580444336,0.7006577253341675,0.7312414050102234
0.04328075773392021,-0.07152838741096079,0.9228624255629102,0.3759460540711389,-0.09964407355042239,-0.1347396622451906,2.361177446881633,-0.1336659938097,0.09947925806045532,-0.9860209226608276,-0.002629898488521576,0.18160276114940643,-0.3460177779197693,-0.21289506554603577,0.6162481307983398,0.8536593317985535
0.03170518404619326,-0.06853744662509328,0.9283801155002207,0.3638787775676842,-0.10437331830186541,-0.10956166708910409,2.3887686953637886,-0.10874756425619125,0.10418391227722168,-0.9885948300361633,-0.05396778881549835,0.16092877089977264,-0.3337729275226593,0.06522516906261444,0.5109956860542297,0.6005363464355469
0.02491103539219388,-0.062363344302578776,0.9321088341393474,0.35589778752175266,-0.09868739496329473,-0.09140085969399507,2.4076029125380622,-0.09082953631877899,0.09852728247642517,-0.9909805059432983,-0.03806418180465698,0.07709872722625732,-0.32272666692733765,0.27098795771598816,0.4004729390144348,0.3547830283641815
0.01951316430059107,-0.05395230822007367,0.93466177155718,0.35087851393857733,-0.08727155902370688,-0.07469124894570643,2.4200750603636036,-0.07433781772851944,0.08716081827878952,-0.9934167861938477,-0.055546682327985764,0.02221052348613739,-0.25488921999931335,0.3285623788833618,0.3760821521282196,0.16915303468704224
0.015533802169566159,-0.04565824730372371,0.93601935483223,0.3486284217868968,-0.07471244394740328,-0.06112386802201087,2.4262261134340584,-0.060915395617485046,0.07464294880628586,-0.9953480362892151,-0.023507479578256607,0.03022812306880951,-0.21824248135089874,0.33069032430648804,0.35455334186553955,0.1259932816028595
0.010632613834949772,-0.036638288152547625,0.9367326473932697,0.3479606310593248,-0.06127944453277028,-0.045518321760909745,2.428866743120213,-0.0454171858727932,0.06124109402298927,-0.997089147567749,-0.015037400647997856,0.01139856968075037,-0.0709044560790062,0.3185815215110779,0.38105079531669617,-0.0510692223906517
0.0064821905433148416,-0.02937319969484208,0.9362555232466058,0.350029720268409,-0.05048516517488159,-0.03274853006173638,2.4252217619915717,-0.03270094841718674,0.05046371743083,-0.9981904029846191,0.040358737111091614,0.03404366225004196,-0.012649476528167725,0.22797071933746338,0.34632739424705505,-0.15391279757022858
0.000763800259481839,-0.024573570056082693,0.9352523514656139,0.35312684401050487,-0.04544117858000625,-0.018804384768065244,2.419114709137106,-0.01878385618329048,0.04542553424835205,-0.9987910985946655,0.06096012145280838,0.0800100639462471,0.0633244588971138,0.01785711944103241,0.39404726028442383,-0.11639495193958282
-0.005267874839185683,-0.02371316003739308,0.9347808510017576,0.3543934184202262,-0.048085544764593924,-0.006967068086298959,2.4166707707550397,-0.006958947982639074,0.048067010939121246,-0.998819887638092,0.08970193564891815,0.09636764228343964,0.18924884498119354,-0.14602181315422058,0.19773706793785095,0.007476344704627991
-0.012329959162639955,-0.026415013776619825,0.93517639619765,0.35298071984983254,-0.058142624114198536,0.004420877196013921,2.4198904999672775,0.004413403570652008,0.058109864592552185,-0.9983004331588745,0.08038577437400818,0.07155720889568329,0.25861597061157227,-0.30579593777656555,0.3191107511520386,0.13226649165153503
-0.02006699835894303,-0.033145801363453034,0.9360195059326653,0.34980858298660505,-0.07616306300306493,0.014419131490639257,2.426847120378938,0.01437684427946806,0.07608944177627563,-0.9969973564147949,0.07551257312297821,0.04056784510612488,0.4039372205734253,-0.5741459727287292,0.2221631556749344,0.2130017876625061
-0.025594672332958843,-0.045827194735754764,0.9372703584866856,0.3446289270520691,-0.10373220416149025,0.016480834035752435,2.437747660925769,0.016391513869166374,0.10354626923799515,-0.9944895505905151,0.07309699803590775,0.0015698149800300598,0.46543088555336,-0.8218653798103333,-0.0649813711643219,0.2986788749694824
-0.029870676275215693,-0.06379102659469015,0.9388505029674419,0.3370432220938897,-0.1403764714133902,0.01321793333916976,2.453189600796462,0.013087543658912182,0.13991588354110718,-0.9900768995285034,0.0895131528377533,-0.05451669171452522,0.493068128824234,-0.9381448030471802,-0.16402973234653473,0.3931744396686554
-0.032122368223625186,-0.08398419763864882,0.9407991227653295,0.3268206612649467,-0.17999131239904617,0.005636942459669866,2.4734124837559324,0.00554586062207818,0.17902103066444397,-0.9838296175003052,0.13535012304782867,-0.010443076491355896,0.5170500874519348,-1.0634790658950806,-0.351114958524704,0.6386147737503052
-0.030168458432679505,-0.10547681130543415,0.9433864992889489,0.3130278334500515,-0.2196601317351794,-0.009337828535727517,2.499799805241248,-0.0091133126989007,0.2178979367017746,-0.9759290218353271,0.154367595911026,-0.21019569039344788,0.32074055075645447,-0.9069485664367676,-0.5986658930778503,0.5195951461791992
-0.029036657368898523,-0.12187434313339365,0.9443000003473841,0.30430436178491144,-0.25045402840886655,-0.01995916716577173,2.5155877733379124,-0.019335146993398666,0.24784384667873383,-0.9686070084571838,0.11034117639064789,-0.15874657034873962,0.11834472417831421,-0.6177831888198853,-0.14816835522651672,0.3323820233345032
-0.030531845448435277,-0.13362467173120662,0.9446947685092124,0.29793275854752665,-0.2740805604717861,-0.022788267929360992,2.5274466469460592,-0.021935775876045227,0.2706619203090668,-0.9624245166778564,0.06205129250884056,-0.10534878075122833,0.09365905076265335,-0.6407362222671509,-0.17825032770633698,0.3194749057292938
-0.032787888858673654,-0.1479122267670258,0.9448851047051992,0.2902396710403426,-0.30317594981756907,-0.025043050168655108,2.541724760777093,-0.023898407816886902,0.29855281114578247,-0.954093873500824,-0.017319366335868835,-0.16581670939922333,-0.09478035569190979,-0.777990996837616,-0.21919608116149902,0.33861204981803894
-0.03550951883970167,-0.1628402108783309,0.9439628804790797,0.28487950744915813,-0.333828002182787,-0.027247740058086823,2.55080348724089,-0.025740332901477814,0.3276621103286743,-0.9444442987442017,-0.02910514362156391,-0.1572248786687851,-0.19581066071987152,-0.7863267660140991,-0.013805851340293884,0.1862531304359436
-0.0396680129666305,-0.17058323370731346,0.9439194845461942,0.27989966050122295,-0.35142898113828275,-0.021948676725835975,2.5611565908294907,-0.020605549216270447,0.3442398011684418,-0.9386556148529053,-0.02783382683992386,-0.17056991159915924,-0.044315725564956665,-0.5278220176696777,-0.04523579776287079,0.3119887113571167
-0.03967391840942741,-0.17462904916875904,0.9452753114426297,0.27273644589652896,-0.3594784887642034,-0.021634296466617256,2.575867144714627,-0.020249852910637856,0.3517861068248749,-0.935861349105835,0.004686638712882996,-0.10759246349334717,0.02756105735898018,-0.3978523015975952,-0.14851334691047668,0.4530840516090393
-0.036579087105371444,-0.17859274231826947,0.9478174758549702,0.26155060257842666,-0.3657836479908349,-0.025790344831197177,2.598323163263078,-0.024081474170088768,0.3576812148094177,-0.9335331916809082,-0.0019485913217067719,-0.12496253848075867,0.03669385612010956,-0.31432753801345825,-0.383307546377182,0.5964177250862122
-0.03248498906161963,-0.18249493217096374,0.95075958448814,0.2483881592034502,-0.37165226020155673,-0.03101006191460084,2.624681069596436,-0.028888322412967682,0.36315539479255676,-0.9312806725502014,-0.02227422595024109,-0.09676297008991241,0.011549369432032108,-0.23226624727249146,-0.3386000692844391,0.6483410000801086
-0.026497748919078495,-0.185587598404016,0.9538600371739427,0.234533905404323,-0.37522128565168505,-0.03924248677694444,2.651949644598782,-0.03650287166237831,0.36647844314575195,-0.9297102093696594,-0.04885856807231903,-0.07453618198633194,-0.031694985926151276,-0.08828237652778625,-0.5577866435050964,0.6096571087837219
-0.019907875612124454,-0.18545986514894927,0.9572055392971434,0.22128224915751032,-0.3724053308638807,-0.04721907593207114,2.6783270335264544,-0.04396608844399452,0.3638569414615631,-0.9304166436195374,-0.03334830328822136,-0.04072003811597824,-0.0705575942993164,0.06479460000991821,-0.3173198699951172,0.6116265654563904
-0.015443399674847022,-0.183306998721318,0.9605655743056161,0.20850371765757042,-0.3667642837886307,-0.05012485295080701,2.704799030062549,-0.0467715784907341,0.3585968017578125,-0.9323201179504395,-0.015444011427462101,-0.04677529260516167,-0.03523332253098488,0.12355922162532806,-0.23552477359771729,0.6073097586631775
-0.014062871445895811,-0.17889263591994317,0.9637607758485259,0.19739515279072645,-0.357967499821158,-0.046480630356054556,2.7291348687681234,-0.043518584221601486,0.3503713011741638,-0.9355993270874023,0.009156964719295502,-0.06047907471656799,0.08418107032775879,0.24468779563903809,0.0054672956466674805,0.5413295030593872
-0.014415615539649818,-0.1707514489151798,0.9670939159646275,0.18805718186579234,-0.34233476823229664,-0.038587693785885314,2.750803393355432,-0.03633955866098404,0.3356873095035553,-0.9412722587585449,0.040346771478652954,-0.10907348245382309,0.2578275799751282,0.5343819260597229,0.06545226275920868,0.43253272771835327
-0.01661047247346502,-0.15749041876760225,0.9707840808663242,0.18027512073435709,-0.3170524640940173,-0.025822608492575186,2.7702461632867603,-0.02453283779323101,0.3117673099040985,-0.9498417377471924,0.05814965069293976,-0.11015400290489197,0.37542712688446045,0.7845205068588257,0.24074672162532806,0.38482534885406494
-0.019950188206142624,-0.13938076733090413,0.9743215286299055,0.1757056916127473,-0.2823507539846693,-0.010520976583301759,2.7832597357065745,-0.010104184970259666,0.2786140739917755,-0.960349977016449,0.06322497129440308,-0.0038559436798095703,0.5587319731712341,0.9535824060440063,0.2743205726146698,0.2772449254989624
-0.018699763539523545,-0.11948832528594752,0.9779384072708848,0.17032078185242217,-0.24244245230518044,-0.004252639041121402,2.796207512213652,-0.004128248430788517,0.24007436633110046,-0.9707457423210144,0.05257578194141388,-0.02507689595222473,0.5471819639205933,1.0397897958755493,0.07534664869308472,0.22563011944293976
-0.016581700465835875,-0.09743818896786743,0.9810850434908196,0.16644239295424101,-0.1980013197090827,0.00010242722569522588,2.8055003130972103,0.00010043347720056772,0.19671009480953217,-0.9804617166519165,0.031219162046909332,0.0478750504553318,0.5933521389961243,1.194227695465088,0.0023107826709747314,0.2636657655239105
-0.013151212357996291,-0.07197943505728065,0.9839666594166451,0.16265206439807145,-0.14645183092477174,0.0024921827254287903,2.8141334894741683,0.0024655091110616922,0.14592885971069336,-0.9892920255661011,0.002885103225708008,0.012957662343978882,0.559611439704895,1.4019618034362793,0.16742008924484253,0.18624554574489594
-0.011566911243121512,-0.042543411345851864,0.986180701487472,0.15969946004314817,-0.0877178880070397,0.009261549862636234,2.820911824096935,0.009225817397236824,0.08760543167591095,-0.9961125254631042,-0.06993553042411804,0.05498106777667999,0.6102310419082642,1.4448661804199219,0.05175742506980896,0.24888363480567932
-0.004526166035021287,-0.015700812987483853,0.9875242861962734,0.15661701237902426,-0.032433303383395166,0.004023495782300066,2.827086692229028,0.004021376371383667,0.03242760896682739,-0.9994660019874573,-0.12467705458402634,-0.06291088461875916,0.352083683013916,1.2722150087356567,-0.2024514079093933,0.008152693510055542
-0.0012844652927712819,0.006875635337710735,0.9876526169466339,0.15650374785778348,0.013179812772960606,0.004689760920878296,2.827254454623422,0.004689343739300966,-0.013179442845284939,-0.9999021291732788,-0.1218826174736023,-0.04479193314909935,0.25272080302238464,1.014354944229126,0.14041683077812195,0.08196637034416199
-0.001199366499050971,0.02773029982761361,0.9876229692146501,0.154371216721423,0.05443073983474916,0.010946994728592112,2.8311921938991977,0.01093057170510292,-0.0544038787484169,-0.9984591603279114,-0.19414672255516052,-0.16295355558395386,0.4587520360946655,1.043687105178833,-0.1375657320022583,0.11318381130695343
0.01109382169070746,0.04647059836318773,0.9871504430989949,0.15248395946512466,0.09527427491636643,-0.007765797170222943,2.8354477870324986,-0.007730493322014809,-0.09513022005558014,-0.9954348206520081,-0.1988208144903183,-0.24536584317684174,0.4763405919075012,0.9602647423744202,-0.6396390199661255,0.1126522570848465
0.03352743236529063,0.06125325320015136,0.9856688956891472,0.15356080098252856,0.13142587292323527,-0.04771109860928441,2.8356308772757846,-0.047281693667173386,-0.13104787468910217,-0.990247905254364,-0.2773507237434387,-0.2280922532081604,0.5758811235427856,0.7658530473709106,-1.4160215854644775,-0.11368753015995026
0.07639965846522775,0.05981223993802064,0.9821361556226018,0.16122699116044448,0.14260575766925487,-0.13251169212391123,2.825654370199374,-0.13078303635120392,-0.14212292432785034,-0.981171190738678,-0.24493762850761414,-0.1911982148885727,0.02217780612409115,-0.12869739532470703,-2.584719181060791,-0.34846556186676025
0.11266790579366445,0.05998835934074526,0.9758449352642199,0.17729655384066262,0.15768255521165794,-0.2024975085188077,2.798196062060719,-0.19862134754657745,-0.15702995657920837,-0.9674146771430969,-0.46544426679611206,0.12791083753108978,-0.1823854148387909,0.07742422819137573,-2.443293333053589,-0.9902485609054565
0.16384984614892853,0.05242278103107913,0.967169336558661,0.18705213855424646,0.16342684655378217,-0.30610266702695244,2.784771382732563,-0.29732951521873474,-0.162700355052948,-0.9408101439476013,-0.3332308530807495,0.11445225775241852,-0.7239494919776917,0.07175523042678833,-1.8308446407318115,-0.10582779347896576
0.20407488838770171,0.04586094088497301,0.96044798356878,0.18382045987897316,0.1638525689489225,-0.3900548281989822,2.795822607133556,-0.3751462697982788,-0.16312038898468018,-0.9125004410743713,-0.4444469213485718,-0.3641546964645386,-1.745107889175415,0.280279278755188,-2.0921316146850586,0.4559447169303894
0.22947359031401268,0.06633081249897037,0.9563447825150244,0.16836483678847386,0.20558596466685397,-0.43955560364441354,2.8391427311510284,-0.41657620668411255,-0.20414084196090698,-0.885884165763855,-0.767403244972229,-0.3945048153400421,-1.5788429975509644,1.261147379875183,-2.096904754638672,0.929345965385437
0.2675530970554808,0.03054829060408722,0.9528970030370084,0.13953332120224565,0.13327811439465953,-0.5303812564584363,2.8870443740877993,-0.5013760924339294,-0.13288390636444092,-0.8549642562866211,-0.4183177053928375,0.4614371955394745,-0.4788760244846344,-2.3503990173339844,-1.6791267395019531,2.3828988075256348
0.2895369502624501,-0.0249053695184878,0.948347502979768,0.12722056689067207,0.026435298742857962,-0.5891979583589164,2.8829071123338488,-0.5555002689361572,-0.026432232931256294,-0.8310961723327637,-0.15386487543582916,0.23732921481132507,-0.6162886619567871,-1.8436814546585083,-0.0771896243095398,0.6109364032745361
0.27480027021173153,-0.03659092899932017,0.9523139028854101,0.12745263303173027,0.00035593518905679126,-0.561810743132254,2.875607168183323,-0.5327194929122925,-0.00035594680230133235,-0.8462918400764465,0.09319835901260376,0.14957323670387268,0.1200585886836052,0.273646742105484,0.8607600927352905,-0.06895605474710464
0.2631140342586282,-0.02323675694882044,0.9554197133282551,0.13192490882120428,0.02502349006530625,-0.5340912496317178,2.8740130488748985,-0.5088996887207031,-0.025020891800522804,-0.8604621291160583,0.3042345941066742,0.19721093773841858,0.05238812789320946,0.559556782245636,0.6256544589996338,-0.5061692595481873
0.25362720743980294,-0.008153099383333742,0.9574678469178703,0.13733896080740204,0.05407948939186171,-0.5105230025887747,2.870772147424029,-0.48791927099227905,-0.05405314639210701,-0.8712135553359985,0.37383344769477844,0.13991305232048035,-0.15388670563697815,0.5679613947868347,0.6357399821281433,-0.30670350790023804
0.2430471152276374,0.0038495078804297498,0.9598480993857982,0.14001779089725763,0.07552350063541054,-0.48570205798438826,2.8706047682704345,-0.4654986262321472,-0.07545173913240433,-0.8818265795707703,0.38513195514678955,0.0699051097035408,-0.17868748307228088,0.38153496384620667,0.615385890007019,-0.22920021414756775
0.23566875293469314,0.012966348781187763,0.9612497357444076,0.14244701760657896,0.09219899045111725,-0.4682168980169782,2.8693576725622414,-0.449379026889801,-0.09206843376159668,-0.8885841965675354,0.25416603684425354,0.004305422306060791,-0.23267650604248047,0.36508533358573914,0.41940227150917053,-0.19182325899600983
0.22605567958057313,0.021571716446447592,0.9634630614337865,0.14202953072316948,0.10597853885824092,-0.44658508062311786,2.8729565298295068,-0.4294649660587311,-0.10578028112649918,-0.8968669772148132,0.25820279121398926,-0.03428680822253227,-0.0995190292596817,0.38921236991882324,0.7425075173377991,-0.07895772159099579
0.2100695375257956,0.028864801171083705,0.9668078935007398,0.14254864942870377,0.11596342156839164,-0.4122320459862946,2.8730891863997003,-0.3979645073413849,-0.11570370942354202,-0.9100752472877502,0.2286311835050583,0.026909150183200836,-0.053900059312582016,0.20824292302131653,0.6880881190299988,0.007056793197989464
0.195089899878555,0.03515485980536644,0.9693689112376566,0.1450107149548221,0.1250620591330907,-0.3800097105125875,2.868691880090992,-0.3680325150489807,-0.12473632395267487,-0.9214081168174744,0.22570106387138367,-0.020101573318243027,0.09619427472352982,0.08340463042259216,0.4310617744922638,-0.3325270116329193
0.18898198620754125,0.03631659137211537,0.9696082365842932,0.15108502937318796,0.12787867764901428,-0.3665855010408975,2.8561738926426417,-0.3555032014846802,-0.12753044068813324,-0.925933837890625,0.27464941143989563,-0.02057700604200363,0.07926736772060394,-0.07855632156133652,0.06203101575374603,-0.32525014877319336
0.18869257540132206,0.036110721567032315,0.9684986331347941,0.15843490417560202,0.13010408553055197,-0.36513183106311586,2.841341725842915,-0.35405460000038147,-0.12973736226558685,-0.9261822700500488,0.25050926208496094,-0.024631552398204803,0.06529506295919418,-0.0812266618013382,-0.11020155996084213,-0.39078545570373535
0.19188992329609167,0.03630730404142952,0.9665225593048238,0.16641552158649509,0.13445533338087648,-0.3705369189304482,2.825812994813171,-0.3588476777076721,-0.13405059278011322,-0.9237200617790222,0.2182963341474533,-0.0567367784678936,0.029385877773165703,0.02140818163752556,-0.2854204475879669,-0.40491607785224915
0.1990707747743254,0.037405756370869375,0.9637056898480547,0.17390492314643402,0.14180987881430485,-0.38379263964616944,2.812122902487342,-0.37068119645118713,-0.14133507013320923,-0.9179432988166809,0.18061167001724243,-0.028348995372653008,-0.004044368863105774,0.05739664286375046,-0.4600996971130371,-0.3369562327861786
0.20883952945498938,0.0378055545626864,0.9605348053799173,0.17980441149678983,0.14827030700315325,-0.4026958419887372,2.801809140349566,-0.3876000642776489,-0.14772765338420868,-0.9099135994911194,0.14868029952049255,-0.009124495089054108,-0.010833118110895157,-0.007326215505599976,-0.5741816759109497,-0.2196037322282791
0.2173020080487914,0.03500981956060118,0.9581460157564833,0.18305824641972906,0.14717765442993055,-0.42027051546870403,2.7954781588262003,-0.403596431016922,-0.1466469019651413,-0.9031082987785339,0.13491767644882202,-0.037196084856987,-0.006347658112645149,-0.1564861387014389,-0.48140949010849,-0.0928393006324768
0.22335811501446046,0.03100495325075738,0.9563411634454473,0.1859072894734317,0.1428356235030558,-0.43340320155083084,2.7890907090619144,-0.4156850278377533,-0.1423504501581192,-0.8982996940612793,0.1433698534965515,-0.04610191285610199,-0.01850278116762638,-0.21634744107723236,-0.5188295841217041,-0.07739006727933884
0.22762589163689217,0.024520244501483643,0.9548409000403689,0.18937789802291116,0.13343611411319953,-0.4436305094853682,2.7801412009575595,-0.4254058599472046,-0.13304050266742706,-0.8951703906059265,0.13321217894554138,-0.0160759836435318,-0.002294795587658882,-0.38034433126449585,-0.5107821226119995,-0.047153305262327194
0.23448885917408102,0.017502241172408083,0.9526743679873098,0.19266607398588392,0.1240216616803056,-0.4594384968191542,2.771538651225942,-0.44003888964653015,-0.1237039864063263,-0.889417290687561,0.11093298345804214,-0.00017545372247695923,0.0010050926357507706,-0.31308305263519287,-0.597320020198822,-0.04132789373397827
0.2439342204517098,0.012258452297102105,0.9497042427177055,0.19597861964474794,0.11917751021539418,-0.480025293982045,2.763789402398816,-0.45852595567703247,-0.11889560520648956,-0.880691647529602,0.06065231189131737,-0.018460752442479134,-0.011930335313081741,-0.1272272914648056,-0.7625723481178284,-0.10343638807535172
0.2531543822761396,0.010692075813804526,0.9465166809515514,0.19976171675443372,0.12168162014287492,-0.498941092590946,2.7566362907721014,-0.47495797276496887,-0.12138158082962036,-0.8715970516204834,-0.03176378831267357,-0.039756327867507935,0.04791837930679321,-0.0027712881565093994,-0.6371591091156006,-0.2038743942975998
0.264137773715208,0.009132909735530841,0.9425327871855862,0.2044011574390034,0.12552565225484896,-0.5214091582035054,2.748007133230245,-0.4941834807395935,-0.12519627809524536,-0.8602956533432007,-0.03457322344183922,-0.06074009835720062,0.045961324125528336,-0.09619126468896866,-0.6252676844596863,-0.2693878412246704
0.274682199582218,0.006140554246109743,0.9380773875275074,0.21100417640712288,0.12778630660272944,-0.5433075724666538,2.734730346997147,-0.5127549767494202,-0.12743882834911346,-0.8490239381790161,-0.09278623014688492,-0.03604128956794739,0.13418211042881012,-0.2106718271970749,-0.7371363043785095,-0.24662978947162628
0.28884309024675225,0.00035505403875205256,0.932213690808932,0.21805320174713022,0.12696916743108258,-0.5736972353096483,2.7195368609571746,-0.5383721590042114,-0.1266283094882965,-0.8331390619277954,-0.12091010808944702,-0.03900819271802902,0.07333359867334366,-0.2818337380886078,-0.7915133833885193,-0.2962857782840729
0.30218717825493474,-0.006432780583564354,0.9265283690834923,0.22402356758044256,0.12378970661621548,-0.6030928919738945,2.7056694815917632,-0.5628522038459778,-0.12347380816936493,-0.817283034324646,-0.15241394937038422,-0.05898452550172806,0.02769709751009941,-0.34605348110198975,-0.5884581804275513,-0.23033198714256287
0.3109043397369682,-0.01533636195459364,0.9221611120199887,0.22961310383743405,0.11474183790928429,-0.6240082740175357,2.690573467109505,-0.5804506540298462,-0.11449024081230164,-0.8062065839767456,-0.12383628636598587,-0.045336514711380005,-0.042223215103149414,-0.5453567504882812,-0.3081657886505127,-0.08909598737955093
0.3100414153922172,-0.02719773866994966,0.9205462514737507,0.23607044938498317,0.09645919227915925,-0.626585017838619,2.6707909204252966,-0.5836561322212219,-0.09630969166755676,-0.8062692284584045,-0.08675782382488251,0.05405241996049881,0.02254287712275982,-0.8880184292793274,0.020666778087615967,-0.0022977590560913086
0.30113821917099226,-0.0451188212831768,0.9215211099577343,0.24099533958406544,0.062029693022613505,-0.6161147860426762,2.6497544908014365,-0.5767573118209839,-0.061989933252334595,-0.8145601153373718,-0.01592095196247101,-0.005208596587181091,0.02656112238764763,-1.0902750492095947,0.42464640736579895,0.09176738560199738
