QuaternionX,QuaternionY,QuaternionZ,QuaternionW,AttitudePitch,AttitudeRoll,AttitudeYaw,GravitationalAccelerationX,GravitationalAccelerationY,GravitationalAccelerationZ,AccelerationX,AccelerationY,AccelerationZ,RotationX,RotationY,RotationZ
-0.06632733501029088,-0.011082879960233038,-6.095118393905162e-18,0.9977364643275741,-0.13274390359531865,-0.022313728197389977,-0.001483245232950981,-0.022115617990493774,0.13235458731651306,-0.9909557104110718,0.0745062530040741,-0.14183253049850464,1.0980149507522583,0.2663893699645996,0.10486548393964767,0.12566447257995605
-0.058949714055640215,-0.012763815381468546,0.0017174078059820322,0.9981779361666986,-0.11800211194967426,-0.025458409430665345,0.0019371833364125682,-0.025278665125370026,0.11772864311933517,-0.9927240014076233,0.06361567974090576,-0.12948165833950043,1.059188961982727,0.6005958914756775,-0.3144501745700836,0.07386140525341034
-0.04848195311444153,-0.04761655537416136,0.007855016572474742,0.9976575798797047,-0.09763990224097414,-0.09484155204136972,0.01110928726624996,-0.09424839913845062,0.0974850282073021,-0.990764319896698,-0.20007696747779846,-0.2983367443084717,-0.07078824192285538,0.36637163162231445,-3.7069220542907715,0.13760840892791748
-0.031561654929620986,-0.08212009075024863,0.009019252418239093,0.9960818110447485,-0.06440181398559344,-0.16410153531808624,0.012811042646886846,-0.1630273461341858,0.06435750424861908,-0.9845203161239624,-0.1916794627904892,-0.1213846355676651,-0.9733788371086121,1.675226092338562,-0.9532005786895752,-0.021300047636032104
0.0015210179287030515,-0.12369692705094512,0.014507562269103916,0.992212834100827,-0.000570734754848548,-0.24804733711743476,0.029169610583829043,-0.2455114871263504,0.0005709432880394161,-0.9693934917449951,-0.733782172203064,-0.5794861316680908,-2.7439217567443848,1.7168943881988525,-1.8484857082366943,-0.37202173471450806
0.033247633206986975,-0.12734271463545843,0.01376707183578275,0.9912057735794132,0.062444793848282866,-0.25666466033756763,0.03583719366959646,-0.2533611059188843,-0.062404002994298935,-0.9653568863868713,-0.6227313876152039,-0.332145094871521,-2.058001756668091,1.0649783611297607,0.5146032571792603,-0.18915939331054688
0.042520075915934805,-0.09965552974333958,0.016634353962230307,0.993974017872346,0.08130182842973052,-0.20154760693417476,0.041692708880702666,-0.19952461123466492,-0.08121207356452942,-0.9765216708183289,-0.05196254327893257,-0.16670450568199158,-0.4073394536972046,0.10552000999450684,2.3071000576019287,0.08179344981908798
0.042680075328035055,-0.0524798056470909,0.0193983285076391,0.9975209938939391,0.08320848583541562,-0.10692815481722111,0.043343648763807564,-0.10635527223348618,-0.08311228454113007,-0.9908486008644104,0.13945136964321136,0.052677735686302185,1.19978928565979,-0.1268518567085266,1.9707964658737183,-0.03015981614589691
0.0386509004815419,-0.05794345820432116,0.0256416525247244,0.9972418774987288,0.07418508773419481,-0.11814831833501767,0.05580335540213228,-0.11754944175481796,-0.07411684840917587,-0.9902973175048828,0.039716124534606934,-0.13300344347953796,0.6980495452880859,-0.22046612203121185,-0.9689133167266846,0.4826927185058594
0.03565839273923353,-0.05524205168302934,0.029766352251566697,0.9973920619066128,0.06789423614449092,-0.1128173464418321,0.06350602559736782,-0.11231882125139236,-0.06784187257289886,-0.9913536310195923,0.04722952842712402,-0.09774907678365707,0.8930482268333435,0.04983806610107422,0.6359089612960815,-0.13876894116401672
0.039350045480063246,-0.04577290927701161,0.025447294063666245,0.9978521860229859,0.07627540384636071,-0.09376143602112628,0.054573289120320695,-0.09335191547870636,-0.07620124518871307,-0.9927128553390503,0.04413801431655884,0.03011389821767807,1.1360787153244019,0.15558189153671265,0.14312735199928284,-0.1947108656167984
0.03860058812642892,-0.04716886360631204,0.02485296994224222,0.9978314696665092,0.07475880732947321,-0.0964704336473622,0.0534141604149067,-0.09605184197425842,-0.07468897104263306,-0.9925702214241028,0.1309538036584854,0.06005293130874634,1.0895403623580933,-0.1347665786743164,-0.02099611982703209,0.06870368123054504
0.0372639547850154,-0.047526145854020145,0.025959799309285173,0.9978371284076657,0.07196126843773488,-0.09718547893150578,0.05552146946549722,-0.09678144752979279,-0.07189895957708359,-0.9927053451538086,0.10769885778427124,0.05993853509426117,1.0544666051864624,-0.017656108364462852,-0.12081382423639297,0.050819993019104004
0.03625584576978265,-0.057766557771325354,0.02836205419316245,0.9972684639585141,0.06909182401560145,-0.1178270323510353,0.06094093701072834,-0.11727412045001984,-0.06903664767742157,-0.9906970858573914,0.045277900993824005,0.06607449054718018,0.7707977294921875,-0.14594581723213196,-1.6616387367248535,0.40889638662338257
0.033652555378514706,-0.09879647475906304,0.03257048885892079,0.9940050419394393,0.06050282641814493,-0.20030128491198462,0.07159199138321724,-0.19860054552555084,-0.06046570464968681,-0.9782135486602783,0.13609710335731506,-0.15822681784629822,-0.643456220626831,0.652443528175354,-0.2595168352127075,0.06731187552213669
0.05195311475292637,-0.12469657114713044,0.04074417971405104,0.9899958614903923,0.09283872399415233,-0.2549715791314127,0.09417398146778294,-0.25113174319267273,-0.09270519763231277,-0.9635033011436462,-0.42684727907180786,-0.26807770133018494,-1.336669921875,0.7232013940811157,-2.389321804046631,0.5184605717658997
0.07119004310995489,-0.15555734490291623,0.04638763300593971,0.9841657691911845,0.12602707918534242,-0.32076608628462433,0.11461225842030934,-0.3127930760383606,-0.12569351494312286,-0.941467821598053,-0.8232407569885254,-0.3820284605026245,-2.981792449951172,1.1055365800857544,0.27158886194229126,0.4100160300731659
0.08542835839753295,-0.14240404482995847,0.05871798459903634,0.9843654888790556,0.15204726927225126,-0.29817570364773455,0.14204096093874788,-0.2903876006603241,-0.1514618694782257,-0.9448462128639221,-0.45870769023895264,-0.2907998561859131,-1.3737951517105103,0.6628044247627258,1.0940126180648804,0.5339827537536621
0.09662504466751554,-0.10762654294631784,0.07234097889321221,0.9868369562935924,0.1760425922315158,-0.2320300577282888,0.1669182101690069,-0.22639958560466766,-0.17513447999954224,-0.9581602811813354,0.018375873565673828,-0.0463448129594326,0.2751269042491913,0.8145670890808105,2.004741668701172,0.21922671794891357
0.10246815564017185,-0.07187789052601287,0.07845739247766748,0.9890290355344261,0.19259775222706538,-0.16194560845288197,0.17400138524076236,-0.158257395029068,-0.19140903651714325,-0.96866774559021,0.07830315828323364,0.3033175468444824,1.319319248199463,-0.0376056432723999,0.8096837997436523,0.2403607964515686
0.09544985982034987,-0.07858465273551757,0.08822705383168783,0.9883976414195986,0.17572117037737364,-0.17578524598708048,0.19357769003134764,-0.17218826711177826,-0.1748180240392685,-0.9694275856018066,0.07289633899927139,-0.014484323561191559,0.572067379951477,-0.4962807893753052,0.17912647128105164,0.4963940680027008
0.09245311943783877,-0.0703189151853643,0.09592677528755263,0.9885877820583355,0.17012456287668534,-0.1597451794816712,0.20711262674236663,-0.1567702740430832,-0.16930489242076874,-0.9730153679847717,0.0674298107624054,0.031027354300022125,0.9632263779640198,-0.021935470402240753,0.40529564023017883,0.13296905159950256
0.08879170424327919,-0.06310257716575522,0.09697976742691358,0.9893074356559461,0.16418185204690994,-0.14451685773541081,0.20734234651278585,-0.14207766950130463,-0.16344501078128815,-0.9762682318687439,0.13615909218788147,0.14341658353805542,1.0229798555374146,-0.44072407484054565,0.44643667340278625,0.043540798127651215
0.07601112643085631,-0.05458493113651263,0.10008286074902413,0.9905686388044849,0.14012050939504483,-0.12490050269450943,0.21016437973856592,-0.12335504591464996,-0.1396622210741043,-0.9824855923652649,0.1305728554725647,0.02953237295150757,1.1025362014770508,-0.5470762848854065,0.44058048725128174,0.14789974689483643
0.06828869319678495,-0.047529711958467884,0.10002427190225464,0.9915003565450446,0.12624334190767333,-0.10899384847268757,0.2079790247109615,-0.10791248828172684,-0.12590806186199188,-0.9861552119255066,0.11343449354171753,-0.025717884302139282,1.0241605043411255,-0.230427086353302,0.3640384078025818,-0.1360289752483368
0.0666076397948586,-0.06675596800618917,0.09851534929740695,0.9906573655649153,0.11909908528606705,-0.14695395102924794,0.20701427785239118,-0.14538830518722534,-0.11881750077009201,-0.9822141528129578,-0.212507426738739,-0.26855045557022095,0.1193699836730957,-0.42704397439956665,-2.898557662963867,0.09220412373542786
0.06991467963143147,-0.10406048942651269,0.09480524916816278,0.9875704680133266,0.11863849669407679,-0.22216253200136465,0.20465873065146126,-0.218790665268898,-0.11836016178131104,-0.9685667157173157,-0.18838059902191162,-0.36753761768341064,-1.0530991554260254,0.7334613800048828,-1.0925668478012085,-0.07254679501056671
0.08678296105449416,-0.13597928631188153,0.09393203958170543,0.9824231482089996,0.14548220360856504,-0.2905805008345171,0.21196965888033692,-0.28348177671432495,-0.14496932923793793,-0.9479567408561707,-0.7620947360992432,-0.5793218612670898,-2.564209222793579,0.5563238859176636,-1.7555149793624878,-0.15893232822418213
0.10717707799103493,-0.13348259062729045,0.09822620423458708,0.9803301604004686,0.18496778455001564,-0.29179973292523137,0.2269835257229226,-0.28276917338371277,-0.1839146465063095,-0.9413909912109375,-0.5757526755332947,-0.43407976627349854,-2.0270678997039795,0.9680472612380981,1.0629771947860718,0.1069413423538208
0.11971198221166733,-0.10453807889810036,0.10774916819670129,0.9813923746104758,0.21407237702640364,-0.23863764296050483,0.24447011527588833,-0.2309834510087967,-0.2124408483505249,-0.949481725692749,-0.021879304200410843,-0.17701564729213715,-0.25858891010284424,0.6198086142539978,1.9970916509628296,0.22607935965061188
0.12957433346174058,-0.06706897656700746,0.11629673487119238,0.9824395763801967,0.24133391882893443,-0.16753571335296416,0.2560159885245839,-0.16192054748535156,-0.23899787664413452,-0.957424521446228,0.09952831268310547,0.191304549574852,1.2258073091506958,0.4773894250392914,1.2500911951065063,0.1207554042339325
0.13504716183146054,-0.08124619565237905,0.12504834077840796,0.9795531777648051,0.24674861432197256,-0.2003081045597767,0.2788647388385653,-0.1929447501897812,-0.24425211548805237,-0.950322687625885,0.024259798228740692,0.042259398847818375,0.5919212102890015,-0.16758596897125244,-1.551896095275879,0.7992582321166992
0.13321179024011415,-0.08411758286979165,0.133381966130617,0.9784621071295118,0.2405592816902914,-0.20756930494114803,0.29614235044159287,-0.20014779269695282,-0.2382456213235855,-0.9503577351570129,0.1324501782655716,0.06045324355363846,0.7887710332870483,0.0385039746761322,0.782399594783783,0.15855447947978973
0.13363763903935386,-0.0729626651864813,0.13607265477149164,0.9789289272918178,0.24420712825965013,-0.18576613380013662,0.2990940798886459,-0.1792193502187729,-0.24178682267665863,-0.9536349177360535,0.12142056971788406,0.1411680430173874,1.0068466663360596,-0.09661427140235901,0.3078796863555908,0.029392022639513016
0.12621835751722832,-0.06871414891088584,0.1377734902704127,0.9799825695535945,0.230484876217729,-0.17495039740329002,0.29964716210790937,-0.1694563925266266,-0.22844937443733215,-0.9586946368217468,0.16716313362121582,0.20909661054611206,1.0909589529037476,-0.5628603100776672,0.3101266622543335,0.16879671812057495
0.11664953885369064,-0.06539390638814559,0.141985967438123,0.980793844203876,0.21182889406217573,-0.16585046948818663,0.3052072200311948,-0.16140103340148926,-0.21024803817272186,-0.9642331004142761,0.13943222165107727,0.09828823804855347,1.1235196590423584,-0.36957547068595886,0.1354130059480667,0.17700248956680298
0.11465185806800185,-0.0718479947412381,0.1435547134796918,0.9803494239921137,0.20561529170421822,-0.1784754735961414,0.3092597767197792,-0.1737898737192154,-0.20416930317878723,-0.9633857011795044,0.03433556854724884,-0.005382537841796875,0.8938458561897278,0.012777864933013916,-1.1433953046798706,0.2156643569469452
0.12223684834321108,-0.10624002140940517,0.14191328663948466,0.9765407590462423,0.21012769531026732,-0.25023993430145003,0.31514977559510854,-0.2421894371509552,-0.20858456194400787,-0.9475424885749817,0.05557464063167572,-0.24375705420970917,-0.2593958079814911,0.5148862600326538,-0.9424010515213013,-0.04536023736000061
0.13760535484002026,-0.13260098609663898,0.1379758052893696,0.9718254058318212,0.23296691768447852,-0.30879662748279824,0.318485881415585,-0.29570239782333374,-0.23086507618427277,-0.9269635677337646,-0.25094354152679443,-0.20010510087013245,-1.1933077573776245,0.3505152463912964,-0.9424619078636169,0.06650521606206894
0.14629077035538154,-0.16199106077940875,0.13341970157012398,0.966725028081,0.24197473848221254,-0.371278963790565,0.319949789143446,-0.352237731218338,-0.23962007462978363,-0.904715895652771,-0.8493635654449463,-0.6668941378593445,-2.953101634979248,0.2976605296134949,-0.2125847041606903,-0.17219315469264984
0.15359784279737895,-0.15455565550692632,0.13645605647008222,0.9663851131280143,0.25752631859891406,-0.35998011580825384,0.3276617186793635,-0.34063923358917236,-0.2546890079975128,-0.9050405621528625,-0.6629024744033813,-0.3899664580821991,-1.7590010166168213,0.32366693019866943,0.6411833167076111,0.15228316187858582
0.15930134089482637,-0.1381764551704594,0.14393929542269182,0.9668567501527399,0.2715916771721915,-0.3309743562372569,0.3412087821516047,-0.31305307149887085,-0.26826488971710205,-0.9110607504844666,-0.2276485562324524,-0.16435852646827698,-0.5311448574066162,0.571640133857727,1.2832978963851929,0.18785494565963745
0.16740912838066943,-0.1080067217078574,0.15340613141574766,0.9678715400854132,0.29519171189562066,-0.27568956380762316,0.35562615566766925,-0.26043638586997986,-0.2909230589866638,-0.9206175208091736,0.1375611126422882,0.20597797632217407,0.7093178629875183,0.4091174006462097,1.5377757549285889,0.1515425443649292
0.16585985036725065,-0.08999585721447753,0.1598790871420511,0.968932366405679,0.29698344730959225,-0.2401485586250988,0.3631580182477294,-0.22743478417396545,-0.29263681173324585,-0.92878258228302,0.11866810917854309,0.30746108293533325,1.1034048795700073,-0.4197850227355957,0.10173272341489792,0.3840961456298828
0.1549715933997543,-0.09404528824882823,0.16541564396052458,0.9694210104828256,0.27272042563365495,-0.2450177130130573,0.3717968212518145,-0.23360835015773773,-0.2693520784378052,-0.934278666973114,0.12695758044719696,-0.010356903076171875,0.636841893196106,-0.49692806601524353,0.33625030517578125,0.09617442637681961
0.14540028394202703,-0.08147170040023564,0.16514299503085403,0.9720848628988945,0.258648114667501,-0.2151775761444925,0.3646479558822967,-0.20641843974590302,-0.2557736337184906,-0.9444423317909241,0.18630923330783844,0.13232406973838806,1.0138828754425049,-0.35275745391845703,0.9045317769050598,-0.1653367280960083
0.1390805896736924,-0.07150081662746126,0.16286323862726007,0.9741765533779156,0.2502935675746853,-0.19172096500045266,0.35548932882002904,-0.1846110224723816,-0.2476881593465805,-0.9510884881019592,0.1731351912021637,0.08682246506214142,1.0699145793914795,-0.3474861681461334,0.2877439558506012,-0.18302536010742188
0.13395044273416873,-0.0648127599706391,0.15986541339315727,0.9758585289797181,0.24309804193399415,-0.17535096699576252,0.3462295140441578,-0.16932420432567596,-0.24071049690246582,-0.9557132124900818,0.16582059860229492,0.11390478163957596,1.123836636543274,-0.08936484158039093,0.38279277086257935,-0.2092258632183075
0.1352246604437713,-0.06360132163546937,0.15613040049441906,0.9763670754245899,0.24669216880167566,-0.17247126049631595,0.3385687040109576,-0.1664217859506607,-0.24419738352298737,-0.9553383588790894,0.08493924885988235,0.11070647090673447,0.9925780296325684,0.09281454980373383,-0.5178360939025879,-0.10400719940662384
0.1406485446404815,-0.0979539393756962,0.15144543843639566,0.9734923601897338,0.24666494461349023,-0.242982295321103,0.3389314862157538,-0.23331592977046967,-0.24417099356651306,-0.9412460923194885,-0.09118117392063141,-0.336830198764801,-0.32604676485061646,-0.20590820908546448,-1.8379273414611816,-0.21117600798606873
0.15536034532836096,-0.1247289267908168,0.14559072312172247,0.9690765488962985,0.26798965322186763,-0.3021827405503879,0.3392847006804319,-0.2869817614555359,-0.26479315757751465,-0.9206117987632751,-0.2109636515378952,-0.34651753306388855,-0.8464738726615906,0.7922322750091553,-1.2748314142227173,-0.16160237789154053
0.1755099810524131,-0.16051916161897514,0.13226146469800137,0.9622561969646464,0.29978011456355097,-0.38109301926354006,0.331430977749297,-0.35534748435020447,-0.2953099012374878,-0.8868597745895386,-0.7823855876922607,-0.6846078634262085,-2.6288299560546875,0.8066798448562622,-1.1091814041137695,-0.4634222388267517
0.19689482607480185,-0.16140490473785912,0.12989555608636363,0.9582839386873191,0.3420624216779148,-0.39267881353380096,0.33813913345167185,-0.3604949414730072,-0.3354305028915405,-0.870361864566803,-0.6746615171432495,-0.42418235540390015,-1.8021292686462402,0.7581472992897034,0.16155508160591125,-0.14918097853660583
0.2068504033973394,-0.14782681939217016,0.13503746889395818,0.9576665097721002,0.3642655046357045,-0.37127955125475615,0.3493153569604186,-0.33900266885757446,-0.35626286268234253,-0.870720386505127,-0.19203418493270874,-0.19038990139961243,-0.5828700065612793,0.5864086151123047,1.3769018650054932,0.07524920254945755
0.21495103928568776,-0.11601331661393897,0.14372074458629897,0.9590002269130661,0.38863887923731316,-0.31225919515043,0.35945414996724206,-0.28429940342903137,-0.37892892956733704,-0.8806740045547485,0.16258057951927185,0.2368089258670807,0.7238977551460266,0.3836691081523895,1.3977333307266235,-0.018851255998015404
0.21203981036642627,-0.0995675459634052,0.1494903456963141,0.9606134522851877,0.3872114820210569,-0.2786426148116596,0.3637362757795298,-0.2546876072883606,-0.3776075839996338,-0.8902509212493896,0.20275996625423431,0.3317181468009949,1.0490930080413818,-0.42274388670921326,0.16183938086032867,0.4611797630786896
0.20579641250336383,-0.0993699631325808,0.15518458413728403,0.961088604650759,0.37334904140617636,-0.2772762883959335,0.3728677453654125,-0.25487950444221497,-0.36473557353019714,-0.8955469727516174,0.1979258954524994,0.08515240252017975,0.697966456413269,-0.19811323285102844,0.47563597559928894,0.08194828033447266
0.20165526388225052,-0.08888641881350479,0.15569142050045362,0.9629095001878432,0.36899025306273714,-0.25356415444337116,0.36816813441560686,-0.23397108912467957,-0.36067360639572144,-0.9028688073158264,0.21779650449752808,0.19766783714294434,0.9468679428100586,-0.1305929273366928,0.5176451206207275,-0.15938140451908112
0.19584987729079653,-0.0792045777343388,0.15443392547376003,0.965152730905813,0.3614023486664535,-0.23014290253479658,0.35955577016913276,-0.21338070929050446,-0.3535861074924469,-0.910739004611969,0.21543359756469727,0.28498539328575134,1.0748850107192993,-0.45607924461364746,0.4306759536266327,-0.05585915595293045
0.18371670754800384,-0.07451543614512916,0.15448937693953005,0.9678992075423152,0.3390749185223824,-0.21479530821864612,0.3534626670606011,-0.20101137459278107,-0.33261460065841675,-0.9213913083076477,0.19467522203922272,0.28174129128456116,1.0312869548797607,-0.7283344268798828,0.40510880947113037,-0.013662092387676239
0.16966894320525494,-0.0722754434364204,0.15484189515245883,0.9705733963435805,0.3120074596023666,-0.20403655415983876,0.3486068673801095,-0.19284091889858246,-0.306969553232193,-0.9319775104522705,0.09052121639251709,0.19919465482234955,0.9460623264312744,-0.7007147073745728,-0.26234084367752075,0.13475963473320007
0.15911852066005538,-0.10177221886338916,0.15341217782994848,0.9699425659922465,0.2811341555756575,-0.2592029736997177,0.3506134473844574,-0.246247798204422,-0.2774452269077301,-0.928647518157959,-0.08059919625520706,-0.3478985130786896,-0.33074283599853516,-0.6967962980270386,-1.3442872762680054,-0.12223872542381287
0.1645122364517262,-0.12226553926920662,0.15085863191201854,0.9670722143368087,0.285149379164211,-0.3027591500577292,0.3532847883435363,-0.2861153483390808,-0.2813005745410919,-0.9159737825393677,-0.2470967024564743,-0.2772826552391052,-0.8191531896591187,0.4130726456642151,-1.1324280500411987,0.11988984048366547
0.18193524861517663,-0.15784758668078055,0.1437151952506074,0.9598591689241527,0.30877756150897456,-0.3821920519141218,0.3574386124678991,-0.3553165793418884,-0.3038940131664276,-0.8839675188064575,-0.714277982711792,-0.7783573865890503,-2.6721315383911133,0.8720953464508057,-0.9876635074615479,-0.3067423105239868
0.20100422746797372,-0.1609934665148031,0.14278637653610576,0.9556624316720287,0.3450131263851823,-0.3984335985372529,0.3669541910907192,-0.3651120960712433,-0.33820879459381104,-0.8673568964004517,-0.6292572617530823,-0.4088115096092224,-1.9346565008163452,0.4753628671169281,0.19322767853736877,0.01950342208147049
0.2006024310320521,-0.14945052178048807,0.15017035471233345,0.9564895827485153,0.3457072788617679,-0.3767624512133702,0.3780066617152739,-0.34614476561546326,-0.33886197209358215,-0.8748465180397034,-0.18623630702495575,-0.16665878891944885,-0.6702122092247009,-0.02957037091255188,1.3631699085235596,0.2471492737531662
0.19641610568204143,-0.11971127568673472,0.16031584069561244,0.9598900725512945,0.34552693116886213,-0.316443580743978,0.3866462589050149,-0.2927964925765991,-0.3386922776699066,-0.8941799402236938,0.17777347564697266,0.1535170078277588,0.6683072447776794,0.08419552445411682,1.6745355129241943,0.02876848727464676
0.1901616300512257,-0.10020600828596148,0.16815434106499527,0.9620403441198919,0.3386204197018664,-0.2756947553159901,0.393503511220188,-0.2567574083805084,-0.3321859538555145,-0.9075946807861328,0.1147257536649704,0.35228192806243896,1.25126051902771,-0.44583413004875183,-0.31722119450569153,0.7247247099876404
0.18637094635820772,-0.11411297668298157,0.17770480611590023,0.9595130106428909,0.32266362286051553,-0.30547260634311246,0.41635062943228623,-0.28522372245788574,-0.3170936107635498,-0.9044882655143738,0.2347451001405716,-0.03894702345132828,0.4914016127586365,0.03994575887918472,0.1633172631263733,0.25380608439445496
0.18068805241099156,-0.10354760015425149,0.18059301353807397,0.9612575691246072,0.3151673364163375,-0.28174080229548804,0.4164737420179547,-0.2643337547779083,-0.30997535586357117,-0.9132595062255859,0.23251156508922577,0.18182472884655,0.992794930934906,-0.24501174688339233,0.6023719310760498,-0.06737148761749268
0.1703641496991528,-0.09753110750629107,0.18003235245768592,0.9638735686416952,0.2976783888855543,-0.263880489389406,0.4090991164609762,-0.24935737252235413,-0.2933012545108795,-0.9229275584220886,0.24395190179347992,0.2566014528274536,1.0649060010910034,-0.851786196231842,0.3551541566848755,0.040346890687942505
0.15166250559520558,-0.09786814317873677,0.18187340305435412,0.9666139634027648,0.2605364831021083,-0.25567980548371355,0.40563877202221416,-0.24436812102794647,-0.25759875774383545,-0.9348406791687012,0.21786265075206757,0.14366179704666138,1.0838502645492554,-0.8762356042861938,0.13783201575279236,0.1883794218301773
0.13851087042530974,-0.09825582886674773,0.1816856598487849,0.9685820091715689,0.23476549962428636,-0.2500542589773891,0.4004887087372122,-0.24066847562789917,-0.2326146960258484,-0.9423211216926575,0.20139743387699127,0.04103486239910126,0.9608622789382935,-0.4208563566207886,0.15622292459011078,-0.06314542144536972
0.13427604107496396,-0.12227495960324425,0.17946006955046218,0.966857294284329,0.21747480034478026,-0.29580035525729553,0.3995730596076523,-0.2846391797065735,-0.2157643735408783,-0.9340376257896423,-0.13745135068893433,-0.32513946294784546,-0.24219438433647156,-0.7003087997436523,-1.907652497291565,-0.05493560805916786
0.13910277802933435,-0.14512022813105954,0.17431438607576905,0.9639529052726894,0.2193384465796956,-0.3430185440482702,0.3959394425870218,-0.32827329635620117,-0.21758374571800232,-0.9191811680793762,-0.22935539484024048,-0.36278119683265686,-0.8518187403678894,0.4177365005016327,-1.1119517087936401,-0.29640257358551025
0.15065777972370922,-0.17416014285739168,0.1645049961698467,0.9591187747462471,0.23382177445726143,-0.40539339924122897,0.38799367088900505,-0.3836483657360077,-0.23169675469398499,-0.8939410448074341,-0.8129804134368896,-0.4726928174495697,-2.4259440898895264,-0.09011349081993103,-1.7622319459915161,-0.5409074425697327
0.1505991899255435,-0.1770039109604569,0.16364445525323565,0.9587544745500822,0.23294489613357502,-0.4109558896750496,0.38687193468848297,-0.38869595527648926,-0.230843648314476,-0.8919790983200073,-0.7210917472839355,-0.3424854874610901,-2.2055182456970215,-0.3192102313041687,0.8117350339889526,0.1996448040008545
0.13472557183622388,-0.1565295251627307,0.1720788960574045,0.9631907898255896,0.20714012408038687,-0.3634510777436407,0.39177442485178615,-0.3479023873806,-0.20566178858280182,-0.914695143699646,-0.1364905834197998,-0.2591879367828369,-0.8396075367927551,-0.5014247894287109,2.004187822341919,0.39025530219078064
0.12555061334325418,-0.1135035892019132,0.18135159425525796,0.9687443999194352,0.20348616808992603,-0.27447503724473954,0.39831965442749473,-0.2654494643211365,-0.20208457112312317,-0.9427080154418945,0.2544732689857483,-0.05787956714630127,0.7776694893836975,0.2999337911605835,2.3429439067840576,-0.10601171106100082
0.1285323807013859,-0.09411608674696138,0.18350856282333342,0.9700238212134769,0.21650417157978963,-0.23748139870216597,0.39986899987747837,-0.2297632098197937,-0.21481651067733765,-0.9492432475090027,0.0745304524898529,-0.11052586138248444,1.1843082904815674,0.4556167721748352,-0.987019956111908,0.23939597606658936
0.13570502603249363,-0.10240701456470949,0.1782467679028901,0.9691879629505651,0.22852376657831217,-0.2562667792830581,0.39333164381794683,-0.24688120186328888,-0.2265397012233734,-0.9421939849853516,0.2574858069419861,0.020753301680088043,0.654363214969635,-0.09866772592067719,0.3880094587802887,-0.576346755027771
0.13421352884686819,-0.08911531466204012,0.168313866564554,0.9724792012413657,0.23314754121547152,-0.22651391347292282,0.36939689553832467,-0.21850551664829254,-0.231040820479393,-0.9480904340744019,0.1954365372657776,0.05356985330581665,0.9899792671203613,-0.07013535499572754,0.7382413744926453,-0.554044246673584
0.12714646486023645,-0.08002137704036866,0.15873792523809374,0.9758241361008717,0.22462451282699905,-0.20299552926523662,0.34548948213312186,-0.19653946161270142,-0.22274009883403778,-0.9548607468605042,0.16383108496665955,0.15780951082706451,1.1271605491638184,-0.6765380501747131,0.10766804218292236,-0.40056610107421875
0.11464122182280571,-0.07747436471559538,0.1493402334662337,0.9790571291331234,0.202726286663862,-0.19099130399055947,0.3222207652054149,-0.18594470620155334,-0.20134030282497406,-0.9617102742195129,0.16626766324043274,0.17330417037010193,1.054499864578247,-0.5754884481430054,0.30096369981765747,-0.554933488368988
0.10459971585452184,-0.07554398560955335,0.13624433491474286,0.9822370019276594,0.18596862371997433,-0.1809968602572636,0.2925818940049575,-0.17690639197826385,-0.18489831686019897,-0.9667040705680847,0.1190328374505043,0.2550942599773407,1.062548041343689,-0.5838059186935425,-0.20763063430786133,-0.6498875021934509
0.09437414614108826,-0.11219187954566681,0.12155595226942247,0.9816979063117465,0.15868374065860472,-0.2488764846647228,0.2662802217108221,-0.2432205080986023,-0.15801839530467987,-0.9570130705833435,-0.11503450572490692,0.05081424117088318,-0.3070908784866333,-1.2725214958190918,-2.696185350418091,-0.49553748965263367
0.0857197856654871,-0.13948312811170396,0.11001852120064563,0.9803533504644153,0.1378157489742022,-0.2996077687905863,0.24434493114613237,-0.2923469841480255,-0.13737967610359192,-0.9463931918144226,-0.11349163949489594,0.11443866789340973,-1.2234468460083008,0.13143053650856018,0.24607111513614655,-0.07870040088891983
0.08499422327668901,-0.1675758700380815,0.10081337563504529,0.9770011228825868,0.1326800656981776,-0.3550488160846912,0.22948373187682147,-0.3445807099342346,-0.13229089975357056,-0.9293886423110962,-0.7956320643424988,-0.3264179527759552,-2.956420660018921,-0.5830900073051453,-1.0569264888763428,-0.6513440608978271
0.07103855725197719,-0.1611903498748786,0.09568148814592603,0.9797022579566719,0.10856051709332667,-0.33776802603976963,0.2132383636763972,-0.3294312059879303,-0.10834718495607376,-0.9379424452781677,-0.5072419047355652,-0.022530943155288696,-2.008632183074951,-1.2579689025878906,1.027606725692749,0.015275314450263977
0.03714823745597672,-0.13253677541692574,0.09728073920552062,0.9856929789862108,0.04746478298712284,-0.27215890031410656,0.2032487131710518,-0.2685087323188782,-0.04744674637913704,-0.9621080160140991,-0.02569727599620819,0.018190529197454453,-0.49292582273483276,-1.6307340860366821,2.4678728580474854,0.32804667949676514
0.002884968425140834,-0.08964093260390582,0.0996642663765524,0.9909709438365569,-0.01215045477107964,-0.17920903635569296,0.19937895390081986,-0.1782381534576416,0.012150364927947521,-0.9839123487472534,0.17198163270950317,0.017791926860809326,0.9745413064956665,-1.3762965202331543,2.28952956199646,0.15971094369888306
-0.02402252181052155,-0.08532605754160624,0.10429427783597334,0.990588342432255,-0.06543759070944442,-0.16513653051111002,0.2043801884183943,-0.1640351414680481,0.06539110094308853,-0.9842847585678101,0.035686567425727844,-0.12912341952323914,0.8483805060386658,-1.1284468173980713,-1.2447580099105835,0.6241335868835449
-0.042559575480424244,-0.0835921893254981,0.11083302501508036,0.9894024473239238,-0.10292829150358394,-0.15745836162775353,0.2149828524877351,-0.15597859025001526,0.10274684429168701,-0.9824020266532898,0.1509595513343811,-0.23080457746982574,0.7834307551383972,-0.4508390426635742,1.1396678686141968,0.07403460144996643
-0.05135836921362066,-0.06859610077695344,0.10522062075965759,0.990750064386765,-0.1164651769238005,-0.1263041744556159,0.20423968690541203,-0.12511524558067322,0.11620225757360458,-0.9853137731552124,0.09060493111610413,-0.11917366087436676,1.0634210109710693,-0.47044050693511963,0.4202153980731964,-0.18622568249702454
-0.06448655876409383,-0.06593030461092408,0.1034109248145288,0.9903539435824436,-0.14183998815680895,-0.11871956237979696,0.1996386437880954,-0.11725141853094101,0.14136505126953125,-0.9829893112182617,0.1605311781167984,-0.21355997025966644,1.0204380750656128,-0.541047215461731,0.32148411870002747,-0.052514467388391495
-0.06756300082468017,-0.06155528283699498,0.09801465076764676,0.9909790674844575,-0.14649712191970915,-0.11015586033999876,0.18908116465823882,-0.10875564813613892,0.14597387611865997,-0.9832923412322998,0.11205902695655823,-0.2706071436405182,0.9975387454032898,0.15489116311073303,0.15505781769752502,-0.4181244969367981
-0.05741848929724981,-0.0625104350048006,0.08876936573193414,0.9924291772529841,-0.12539394148029717,-0.11503510703025711,0.1711885469468595,-0.11388033628463745,0.12506578862667084,-0.9855911135673523,0.12137269973754883,-0.17168235778808594,0.9565631747245789,0.7950942516326904,-0.5344899892807007,-0.5057425498962402
-0.03439088053013972,-0.09812712613224991,0.07887553712146672,0.9914470021385482,-0.08377107454189545,-0.1909748661370258,0.15074943750093434,-0.18915046751499176,0.08367332816123962,-0.9783766269683838,0.2331363707780838,-0.0512404665350914,-0.45092251896858215,1.1469615697860718,-0.5895136594772339,-0.7561551332473755
-2.9594488662271212e-05,-0.122471847051183,0.07266388648046021,0.9898085014597899,-0.01785809571243274,-0.24492309129323944,0.14436327252521802,-0.2424430251121521,0.017857355996966362,-0.9700012803077698,0.0659390389919281,0.31089484691619873,-1.2742365598678589,1.2533957958221436,-0.9449009895324707,-0.14699748158454895
0.0311475040391894,-0.15313606017774253,0.07346633712501592,0.9849782052859037,0.03886832036542692,-0.3114922582453914,0.15500161469280188,-0.30624791979789734,-0.0388583205640316,-0.951158344745636,-0.651203989982605,-0.14078372716903687,-2.6318769454956055,1.4762201309204102,-1.6088787317276,-0.8296388387680054
0.04085725989214918,-0.15769715593953393,0.06920768984200719,0.9842117372443189,0.05863026231694895,-0.32215779264470795,0.14993397646738163,-0.316070020198822,-0.05859646201133728,-0.94692462682724,-0.4646872878074646,0.08554890751838684,-2.328519344329834,-0.4830765724182129,0.6978856921195984,0.17711669206619263
0.027515583518105513,-0.1366725289761181,0.07203462977295079,0.9876105195591309,0.03466599220120896,-0.2776405065574898,0.1504627022974136,-0.2739225924015045,-0.03465883433818817,-0.9611270427703857,-0.051651522517204285,-0.04076637327671051,-0.713823139667511,-0.35985267162323,1.6772490739822388,0.09037177264690399
0.024050949675066095,-0.09573999487695044,0.07633364152623448,0.9921837969452436,0.03311561258014907,-0.19499473516481006,0.15680671414399822,-0.1936551183462143,-0.03310934826731682,-0.9805108308792114,0.28043675422668457,-0.08619019389152527,0.9737756252288818,0.3252295255661011,2.3489785194396973,0.15649816393852234
0.0366095695480465,-0.09429573302617004,0.07999011122420668,0.991649997304819,0.05755407585374438,-0.19441584609539944,0.1665927155783989,-0.1928735226392746,-0.05752209201455116,-0.9795361161231995,0.1116659939289093,-0.19833087921142578,0.8390969634056091,0.7802233099937439,-1.759021282196045,0.13615934550762177
0.04808778344027359,-0.09361691399175057,0.07473620506294476,0.9916340481341271,0.08146790841126347,-0.19472526724232353,0.15841048356858897,-0.19285522401332855,-0.08137760311365128,-0.9778469204902649,0.1646190583705902,-0.10768796503543854,0.8676439523696899,0.62038254737854,0.4952930510044098,-0.8262449502944946
0.05783943572724052,-0.09065871786102103,0.06300630130502582,0.9922025647967002,0.10353762072144136,-0.18932904996391367,0.13667205096015417,-0.18719211220741272,-0.10335250943899155,-0.9768711924552917,0.1839512139558792,0.15155693888664246,1.0298490524291992,0.19863922894001007,-0.005879487842321396,-0.29520881175994873
0.06608970663630612,-0.0938370563007847,0.05809772906636134,0.9916912010938748,0.12046889927543543,-0.1964704300008233,0.12892196580143928,-0.19379408657550812,-0.1201774999499321,-0.9736535549163818,0.13280175626277924,0.20594611763954163,1.1131536960601807,0.47197672724723816,-0.3579332232475281,-0.27228689193725586
0.08067570007928603,-0.10182755214424938,0.0557377317163442,0.9899576053735444,0.14892970683773452,-0.2146041309740891,0.12855900577296242,-0.210603266954422,-0.14837954938411713,-0.966245174407959,0.1732555329799652,0.273928701877594,1.0361608266830444,0.8951732516288757,-0.60909104347229,-0.05322191119194031
0.10214208220691896,-0.10779043086533159,0.057284341761118934,0.9872522032205178,0.19048035482290296,-0.2307121272926356,0.13805520763697032,-0.22453495860099792,-0.1893303543329239,-0.9558964967727661,0.17655983567237854,0.24616286158561707,0.9977610111236572,1.158789873123169,-0.2601671516895294,0.08517672121524811
0.12367100307641048,-0.12009413390951977,0.06288738058968454,0.9830199496015477,0.23006140943777031,-0.26144295188434424,0.15815143906629672,-0.25166454911231995,-0.22803708910942078,-0.940565824508667,0.10175508260726929,0.09939524531364441,0.7305783033370972,0.8528896570205688,-1.4650298357009888,0.4164610505104065
0.14368709807414984,-0.14531898829219742,0.06884204317071982,0.9764718708815143,0.26364849998831713,-0.3198759712275993,0.18354092826861093,-0.30358320474624634,-0.26060447096824646,-0.916472852230072,0.02103728987276554,-0.23049628734588623,-0.6399932503700256,1.4070922136306763,-0.6290481090545654,0.21725496649742126
0.16201641736762473,-0.16073204728727922,0.07440278776891393,0.9707627352720452,0.2948968727056296,-0.35900297629286804,0.20687672768804705,-0.33617427945137024,-0.2906409502029419,-0.895831823348999,-0.37296879291534424,-0.5842549800872803,-1.5695265531539917,0.5392048954963684,-1.2247254848480225,0.3885159492492676
0.1825329527889052,-0.17957098477557973,0.07317109354584769,0.9638890499404249,0.3316506999349037,-0.4053891071131845,0.22029849941988916,-0.37288525700569153,-0.32560399174690247,-0.8688720464706421,-0.7878341674804688,-0.7337889671325684,-3.377718687057495,1.3169676065444946,0.39926210045814514,-0.03832848370075226
0.19839622955188269,-0.17354464263992964,0.07710592111071447,0.9615487985653928,0.36267091354317305,-0.400291061518749,0.23439103924188237,-0.36433830857276917,-0.3547724485397339,-0.8610424995422363,-0.5870367884635925,-0.6859849095344543,-1.9812958240509033,0.6468668580055237,0.498989462852478,-0.19243983924388885
0.20265993204631497,-0.15136222649895786,0.0816434721554303,0.9640295723020975,0.37473384813547933,-0.3566710578930773,0.23729746175419808,-0.32492703199386597,-0.3660246431827545,-0.8720369338989258,-0.040822941809892654,-0.06756345927715302,-0.09947513043880463,0.02923247218132019,1.5195138454437256,0.008725009858608246
0.1985152061055101,-0.12611249162592084,0.08323463357179395,0.968379838257724,0.3720032525910697,-0.3022359887961502,0.2287785120164523,-0.277296245098114,-0.36348214745521545,-0.8893747925758362,0.12925127148628235,0.40375813841819763,1.5044488906860352,-0.6969131827354431,-0.10414862632751465,0.1299285590648651
0.19363025040750487,-0.13342318473578982,0.08119949376434554,0.9685619828310383,0.36122239824159,-0.3150899235729077,0.22527932777130213,-0.28990259766578674,-0.3534177839756012,-0.8894112706184387,0.19687888026237488,0.15919482707977295,0.6604067087173462,0.4708828330039978,0.36790937185287476,-0.1443934440612793
0.19374787634710658,-0.12768125297290786,0.07840969856889182,0.9695417959423394,0.36363130591642895,-0.3019846405639178,0.2173245095680231,-0.27796801924705505,-0.3556702136993408,-0.892318606376648,0.1993643194437027,0.4526441991329193,0.7836394906044006,-0.46090778708457947,0.12101814895868301,0.011216990649700165
0.18546031737056906,-0.1196843729727793,0.08208344744865831,0.9718757961274996,0.34781086663021404,-0.28362704722216153,0.21867148456400803,-0.2630831301212311,-0.34084033966064453,-0.9025603532791138,0.2890404760837555,0.41192197799682617,0.9385215044021606,-0.42957624793052673,0.6444805264472961,0.25580132007598877
0.1768243042281212,-0.11194351482619137,0.08801503258323244,0.9738867557202224,0.3307032703591098,-0.2665883069828436,0.2250052528713129,-0.24916698038578033,-0.3247080445289612,-0.9124037027359009,0.32331910729408264,0.313110888004303,0.988306999206543,-0.260985791683197,0.4751708209514618,0.21227747201919556
0.17260956864597796,-0.10387727798505837,0.0926351505880813,0.9751073442281935,0.32296572210242674,-0.24994520814268995,0.23035541288712683,-0.23456239700317383,-0.3173801004886627,-0.9188309907913208,0.27824848890304565,0.26905763149261475,1.0078383684158325,-0.11966998875141144,0.3986033499240875,0.126715749502182
0.17145723754241335,-0.09717009381082513,0.09459036763175994,0.975814114216069,0.3217614210007717,-0.2362822742729761,0.23178513036128703,-0.22207628190517426,-0.31623783707618713,-0.9223208427429199,0.2399035543203354,0.2607220709323883,1.0304343700408936,0.05614926666021347,0.23502039909362793,0.0055639357306063175
0.1729911949923582,-0.0942735515983578,0.09602458486353534,0.9756874809996257,0.32516540667370286,-0.23125184399483487,0.23430062059803283,-0.217185840010643,-0.319465309381485,-0.9223731756210327,0.32144755125045776,0.2711081802845001,0.9569746851921082,0.10863930732011795,0.21540983021259308,0.04984116181731224
0.1755682097465847,-0.09835342793568991,0.0988306309420956,0.9745435032431833,0.32864099543719383,-0.24154616066934392,0.2423759983894493,-0.2264024019241333,-0.322756826877594,-0.9190049171447754,0.2418697029352188,0.2069481760263443,0.6427379846572876,-0.1050199568271637,-1.454169750213623,0.5299800038337708
0.18772472134296886,-0.12216763259019686,0.10133651079737709,0.9693118984113515,0.34603183200265814,-0.29653051520963764,0.2605266856622571,-0.27488377690315247,-0.3391672968864441,-0.8996691107749939,0.14992831647396088,-0.14256630837917328,-0.529586136341095,1.3975125551223755,-0.9054837226867676,0.18638716638088226
0.21723258926149086,-0.1446935033787597,0.10424060291611097,0.9596914691187002,0.39714447919776535,-0.3578627494505472,0.28914636622335876,-0.3230111300945282,-0.38678643107414246,-0.8637476563453674,-0.29742610454559326,-0.7638945579528809,-1.2585896253585815,1.9419357776641846,-2.057865619659424,0.28293275833129883
0.27308232622682915,-0.17438788210057155,0.09669849860823465,0.9410975184207504,0.5009603528690416,-0.44940190875699776,0.32160594861692376,-0.38104528188705444,-0.48026788234710693,-0.7900299429893494,-0.6206150650978088,-0.7836863994598389,-3.037444591522217,2.362499237060547,-0.8273338079452515,-0.25622594356536865
0.3073363639217347,-0.17631861565471815,0.10258526749929621,0.9294796873476563,0.5646858122452476,-0.4809803766828322,0.36189040528506466,-0.390825480222702,-0.5351502299308777,-0.7489123344421387,-0.6179555654525757,-0.9524956941604614,-2.3072314262390137,1.5231653451919556,0.05179727077484131,0.20915013551712036
0.33061016853810204,-0.17172713588820535,0.11304947005991081,0.9211008324232499,0.6067776278382194,-0.4962079938592997,0.4025206264215303,-0.39110660552978516,-0.5702230334281921,-0.7224135398864746,-0.22449669241905212,-0.4691843092441559,-0.9663919806480408,1.1835111379623413,0.3760727643966675,0.20989586412906647
0.3460568613298274,-0.15531047444469703,0.12242132413522983,0.9171348954261058,0.6394260981326254,-0.4786818191970059,0.42662048382923246,-0.3696107566356659,-0.5967348217964172,-0.7122467756271362,0.32566943764686584,0.2316991686820984,0.5372551679611206,0.5923186540603638,1.4943180084228516,-0.22635392844676971
0.33944656654371497,-0.14391732068236915,0.12960447502506703,0.9204708964090611,0.6280855032960871,-0.45134122287459344,0.4286219052263755,-0.3529309630393982,-0.5875964760780334,-0.7281278371810913,0.07552371919155121,0.1067051813006401,1.1040613651275635,-0.34483250975608826,-0.6619218587875366,0.453266978263855
0.3455738481832267,-0.14898641671296406,0.1292439906342123,0.9174300571721705,0.637973130687056,-0.4684511593389124,0.43719104726781255,-0.3626958727836609,-0.5955682396888733,-0.7167636752128601,0.14153623580932617,0.16585269570350647,0.49888691306114197,0.649803638458252,0.34326639771461487,-0.34070807695388794
0.3450794305922652,-0.13662183928215463,0.12548879027037568,0.9200582865826824,0.6443730948126667,-0.43651717046697175,0.41891788170852434,-0.33800727128982544,-0.6006971597671509,-0.7245094776153564,0.20934359729290009,0.5815336108207703,0.6611513495445251,-0.8432281613349915,0.6328625679016113,-0.23139558732509613
0.32105099347793487,-0.11788531974803235,0.12531059454838508,0.9313038082225846,0.6046175475246753,-0.3732980985340868,0.38515606339483477,-0.3000362515449524,-0.5684472322463989,-0.7660587430000305,0.22720842063426971,0.5037918090820312,0.8107185363769531,-1.4620417356491089,1.2897191047668457,-0.18749049305915833
0.2878221640853971,-0.09525308360268638,0.1248452870368583,0.9447217089900186,0.5468976593075965,-0.29929611066723555,0.34730499159526435,-0.2518417537212372,-0.5200396776199341,-0.8161706328392029,0.21562184393405914,0.44920629262924194,0.9053439497947693,-1.7071819305419922,1.4157103300094604,-0.35611194372177124
0.2539604452577051,-0.07295215610268102,0.12221355382504473,0.9566849482612692,0.48712675024588314,-0.2302321791440605,0.3115677159309598,-0.20165924727916718,-0.4680885672569275,-0.8603642582893372,0.1445215940475464,0.3991030752658844,1.0612208843231201,-1.5597630739212036,1.0378475189208984,-0.30062738060951233
0.23104720172827287,-0.060703957511657504,0.11895538993722553,0.9637333469878444,0.445482855020004,-0.19174567681715882,0.2891783825859201,-0.17197345197200775,-0.4308934211730957,-0.8858645558357239,0.10929253697395325,0.32350367307662964,1.039389967918396,-0.7405561208724976,0.32744696736335754,-0.23060639202594757
0.21886181448838532,-0.05776812688079064,0.11672999330144687,0.9670246180059289,0.4222380611031172,-0.1794604248880349,0.2788179366104705,-0.16282185912132263,-0.40980273485183716,-0.8975247740745544,0.3165247440338135,0.3672076463699341,0.9496742486953735,-0.5260493159294128,0.051559142768383026,-0.007196903228759766
0.20975183618012594,-0.06113580541372911,0.11704137349571647,0.9687971648592282,0.4029166896467307,-0.1831637640268699,0.2779645659747161,-0.16755564510822296,-0.3921028971672058,-0.9045332670211792,0.4963071644306183,0.40307557582855225,0.9828951358795166,-0.5564639568328857,-0.4483488202095032,0.2564868628978729
0.2030439986180852,-0.09958628513378813,0.1187632227003326,0.9668252860753023,0.3778917268182935,-0.262061640984182,0.29484346200123335,-0.2407933622598648,-0.36896154284477234,-0.8977115154266357,0.126617893576622,0.0017626471817493439,-0.4194616377353668,0.3300992250442505,-1.602264165878296,0.5878296494483948
0.20491726449866415,-0.13436653695199555,0.12356488312168264,0.9616061161198661,0.369225695969584,-0.33777628892108313,0.3192574218259221,-0.30905649065971375,-0.360893189907074,-0.8799092173576355,-0.27536851167678833,-0.6155894994735718,-1.3453997373580933,-0.5208091735839844,-2.3229222297668457,0.47252845764160156
0.22617908483115992,-0.1639049625243768,0.1187966275155171,0.9528198701095207,0.4028840867992017,-0.4092748858144123,0.33279245762310256,-0.36608240008354187,-0.3920729160308838,-0.843956470489502,-0.7346216440200806,-0.5616167783737183,-2.3027732372283936,1.161119818687439,-1.4931962490081787,-0.08168867230415344
0.24637662430685345,-0.17803225147566165,0.11625214923745456,0.9455626125303334,0.43844911252110175,-0.45017448227010437,0.34660397502944085,-0.39396485686302185,-0.4245355427265167,-0.8152062892913818,-0.7643244862556458,-0.8455629348754883,-2.544868230819702,0.9411231875419617,-0.26853659749031067,-0.12563928961753845
0.2621117626306947,-0.17352801741221294,0.12211044844494513,0.9414216454426829,0.4680380536087646,-0.45317811710987,0.3677856676267136,-0.39073920249938965,-0.4511359632015228,-0.8023710250854492,-0.32260578870773315,-0.4596850275993347,-1.3089600801467896,0.9703410863876343,0.5330883264541626,0.23189930617809296
0.2752720883067987,-0.15497865461058802,0.13415112724166328,0.9392606008817368,0.4955588319595097,-0.4278303705172435,0.39353654107990105,-0.364986777305603,-0.47552311420440674,-0.8004139065742493,0.1606292724609375,0.058195021003484726,0.06740915775299072,0.701438307762146,1.5536693334579468,0.15502198040485382
0.2741754485987393,-0.12173424847613563,0.14325175424934028,0.9431266008656036,0.503263565402887,-0.3594840192116868,0.3948331273890471,-0.308173805475235,-0.48228681087493896,-0.8200173377990723,0.2144404947757721,0.6282739043235779,1.5746212005615234,-0.6765719056129456,0.3493099808692932,0.27348339557647705
0.2618186278763101,-0.13214947693449428,0.14284501613101142,0.9452952178906404,0.47488705763993955,-0.3736675851269615,0.3913879714418151,-0.3246394693851471,-0.45723778009414673,-0.8279751539230347,0.22962579131126404,0.1939581334590912,0.2440733015537262,-0.3364887535572052,0.5243706703186035,-0.12012150883674622
0.2578710173401756,-0.11180850315042201,0.14225788057432584,0.9490860478385491,0.47537543665270393,-0.32701356227098277,0.3774593126814604,-0.28560009598731995,-0.4576720595359802,-0.8420029282569885,0.1562517285346985,0.47557854652404785,0.8539959788322449,-0.3361339569091797,0.8157811164855957,-0.30576810240745544
0.24045047103309547,-0.09693005903601118,0.14217378320097468,0.955287894137433,0.4465285050038032,-0.2849691453933115,0.36060803529285046,-0.25356370210647583,-0.4318367838859558,-0.8655763864517212,0.2547512352466583,0.4441066086292267,0.9949764013290405,-0.7895385026931763,1.2009124755859375,-0.025273457169532776
0.23188670414711932,-0.07891907011183134,0.1457821344116217,0.9585134570757602,0.4351242447004987,-0.24380151652445736,0.35602074099755604,-0.21889981627464294,-0.421522855758667,-0.8800007700920105,0.21989428997039795,0.3908647894859314,1.2728193998336792,0.04846876859664917,0.5069125890731812,-0.017747417092323303
0.2465977125471353,-0.07983126796222824,0.14657861813716513,0.9546367711323154,0.46387768989077866,-0.2539860831303909,0.3650031934552508,-0.2247115969657898,-0.447419136762619,-0.8656331896781921,0.2309878170490265,0.21101701259613037,1.119575023651123,1.475277304649353,-0.5730302929878235,-0.08361908793449402
0.2829939536491053,-0.08754988296921391,0.14234151463799607,0.9444514786137572,0.5347479006051125,-0.28988395056172944,0.37910225142069187,-0.24593676626682281,-0.5096239447593689,-0.8244990110397339,0.23942700028419495,0.1795155107975006,0.9009084105491638,1.746814489364624,-0.7072751522064209,-0.2016049027442932
0.3052453576011026,-0.09065555330767353,0.1384170283047878,0.9377886800575117,0.5792718692805351,-0.3090490373464623,0.385857865203694,-0.2545337677001953,-0.5474145412445068,-0.7972138524055481,0.27214759588241577,0.12334993481636047,0.7875743508338928,0.31189364194869995,0.008687324821949005,-0.2660445272922516
0.29115669124079757,-0.09606718681432928,0.12894601252402899,0.9430652381091833,0.5519921500071275,-0.3057242054745625,0.35899025026153647,-0.2562822103500366,-0.5243843197822571,-0.8119978904724121,-0.06373517215251923,-0.3786901831626892,0.002000894397497177,-1.4649436473846436,-0.6015099287033081,-0.5503308176994324
0.2599976020969478,-0.09430457943569866,0.10321411007166692,0.9554343372963268,0.497641179289444,-0.2694033390958792,0.2840637591245891,-0.23387448489665985,-0.47735393047332764,-0.847015917301178,0.0644167810678482,-0.07171827554702759,-0.33708611130714417,-2.674898862838745,0.02576547861099243,-1.4048480987548828
0.20594833032093862,-0.10380620338891544,0.06035328650825611,0.9711678842621234,0.39790809264173715,-0.24822103103078122,0.17442509528830208,-0.22648581862449646,-0.38749048113822937,-0.893619179725647,-0.26969149708747864,-0.4630788266658783,-1.1151155233383179,-3.318284511566162,-1.3195674419403076,-2.383923292160034
0.14425813653620997,-0.11119631846150849,-0.00027106170852409975,0.983272606748306,0.2877030454214283,-0.22998623772312937,0.03290713014776031,-0.21859440207481384,-0.2837502062320709,-0.933650016784668,-0.1285514235496521,0.16395731270313263,-1.7264372110366821,-3.55564284324646,-0.4791196584701538,-2.1272153854370117
0.07370789827864437,-0.12337991845606812,-0.04182542859808842,0.9887341739738829,0.15671657993870988,-0.24315365946020717,-0.06536735550854167,-0.23781418800354004,-0.15607565641403198,-0.9586890935897827,-0.15507644414901733,0.34392547607421875,-1.8198583126068115,-3.645352840423584,-1.0141522884368896,-1.0334010124206543
0.0073043249601314475,-0.13617039475208298,-0.05554150822074386,0.9891004103095407,0.029579953253780128,-0.2720208559174743,-0.10814085731265548,-0.2685610353946686,-0.02957543358206749,-0.9628085494041443,0.033149152994155884,0.366256445646286,-1.3953452110290527,-2.9130899906158447,-0.6251351237297058,0.6152549982070923
-0.041116815176860465,-0.13995722603844346,-0.04178032412138839,0.988420966684899,-0.06964281023325514,-0.28461682809109706,-0.09447141432966816,-0.28010907769203186,0.06958672404289246,-0.9574427604675293,0.08584809303283691,0.09175699204206467,-0.7069920301437378,-1.7441439628601074,-0.22838205099105835,1.40400230884552
-0.06800258751050098,-0.14426733690419735,-0.015220381185222702,0.9870821298961212,-0.13022442448049942,-0.2935239715794777,-0.05011375691628933,-0.28687748312950134,0.12985685467720032,-0.9491251111030579,0.09962798655033112,-0.1847894787788391,-0.29118967056274414,-0.4761196970939636,-0.37132102251052856,1.5548795461654663
-0.07182697460450715,-0.15212032003438342,0.014853083918791645,0.9856367980301868,-0.14663444632389613,-0.3057064161848771,0.007507443909747693,-0.2977370619773865,0.1461097151041031,-0.9434005618095398,0.20150896906852722,0.044101595878601074,0.5477264523506165,0.29061025381088257,-0.6130342483520508,1.5323275327682495
-0.07387710388062621,-0.16548917205710723,0.050546360844448336,0.9821408955319513,-0.16256021999736536,-0.3276744027574035,0.07590825308457418,-0.3175989091396332,0.1618453860282898,-0.9343109726905823,0.21182093024253845,0.1920517086982727,1.1072754859924316,-0.27047839760780334,-1.4186269044876099,1.9750052690505981
-0.08239126884256692,-0.1840743743929494,0.09120464733244363,0.9751975452040682,-0.19551566695493097,-0.3582863448056541,0.1509917643347556,-0.3439887762069702,0.19427259266376495,-0.918656587600708,0.17732205986976624,0.1133003756403923,0.6503840684890747,0.04444226622581482,-0.6298627853393555,2.065173625946045
-0.09089115003879611,-0.18892758759623565,0.1336720768939073,0.9685954120469338,-0.22856716620827325,-0.35843968135339543,0.23269643140967614,-0.34168949723243713,0.2265823632478714,-0.9120903015136719,0.2059728503227234,-0.1779022514820099,0.7487947940826416,0.07396605610847473,-0.19747549295425415,1.9468457698822021
-0.08831022697086183,-0.18510028036805545,0.16365814657916344,0.9649639442245834,-0.23312458333111594,-0.34421003170958864,0.29530163502692935,-0.32832473516464233,0.23101888597011566,-0.9158783555030823,0.2659883201122284,-0.3334449529647827,0.8913876414299011,0.659483015537262,0.09256963431835175,0.9933164715766907
-0.07483595876539718,-0.1794338324092663,0.176896189646112,0.9648371816135648,-0.20941871869201054,-0.3330372937207462,0.3273347491685303,-0.3197723925113678,0.2078915387392044,-0.924406111240387,0.29373401403427124,-0.40307968854904175,0.911095142364502,1.041168212890625,0.15891358256340027,0.0975724458694458
-0.04675529462527467,-0.1723160674148994,0.1773567620227615,0.9678149771720699,-0.15221084828908202,-0.32642917535088983,0.33737449200040953,-0.3169553279876709,0.15162397921085358,-0.9362422227859497,0.22758519649505615,-0.45780542492866516,0.9637244939804077,1.9136390686035156,0.14242690801620483,-0.5327284932136536
-0.0003349042287825038,-0.17764488951142582,0.17243666911592787,0.9688693976630829,-0.0619535675342174,-0.35199944640456315,0.34124470119838696,-0.344113826751709,0.06191414222121239,-0.936884343624115,-0.036420851945877075,-0.370453417301178,0.04210595041513443,2.4142816066741943,-0.8419587016105652,-0.8199115991592407
0.043530976231166155,-0.18635448715527897,0.16461342645921379,0.9676154636826788,0.022891589408893135,-0.3844709872447975,0.34147481063992463,-0.3749704658985138,-0.022889381274580956,-0.9267541170120239,-0.12958590686321259,0.025277189910411835,-0.8432372212409973,1.1791990995407104,-1.078887939453125,-0.6612435579299927
0.05704644892229545,-0.18835508826799174,0.15901555075958357,0.9674616923047653,0.05049919266818699,-0.3931322260668315,0.33587251308218247,-0.38259515166282654,-0.0504775196313858,-0.9225361347198486,-0.39834123849868774,-0.30310142040252686,-1.5751287937164307,0.3710712492465973,-0.15998220443725586,-0.2704707384109497
0.06461656196907355,-0.19760741233747053,0.14954321624014208,0.9666503810459268,0.06586917380386008,-0.41395429836403674,0.32080781402065994,-0.401360422372818,-0.0658213421702385,-0.9135520458221436,-0.6552785634994507,-0.018034368753433228,-3.0991291999816895,-0.2739630341529846,0.6829882860183716,-0.04033607244491577
0.04639075363186598,-0.18123913152970117,0.1531353106375068,0.9703349773524306,0.03452778041123505,-0.374870144580691,0.3196012184642609,-0.3659333884716034,-0.0345207080245018,-0.9300006031990051,-0.42338377237319946,-0.09210388362407684,-1.6569087505340576,-0.9352680444717407,1.2706917524337769,0.34699752926826477
0.022841671036155572,-0.15275918525268434,0.15953733103997522,0.9750337858281262,-0.00419879578143292,-0.31012914163287186,0.3237140885123382,-0.3051788806915283,0.004198990296572447,-0.9522857666015625,-0.025067254900932312,-0.1568414568901062,0.07496631145477295,-0.6815857887268066,1.520088791847229,0.4031226634979248
0.009605631953689305,-0.12344447670478684,0.1626405189194835,0.9788858324660802,-0.021350135397608792,-0.2473716133201637,0.3266348713096674,-0.24480056762695312,0.02134871855378151,-0.9693384170532227,0.25555872917175293,0.034827351570129395,1.2376633882522583,-0.3587667942047119,1.498649001121521,0.14619259536266327
-0.004574632635540421,-0.11930981567700262,0.16423019106390876,0.9791694702539075,-0.04816585043799727,-0.2345609862182305,0.3266784724746677,-0.23214641213417053,0.04814743250608444,-0.9714884757995605,0.13447195291519165,-0.11395316570997238,0.6442973613739014,-0.6174540519714355,0.38805443048477173,-0.02213817834854126
-0.02374469799683799,-0.10811242951606193,0.16217441376045774,0.9805343302276526,-0.08172205585971376,-0.20646216552503877,0.31934920010597695,-0.20431427657604218,0.08163132518529892,-0.9754957556724548,0.14475740492343903,0.15615764260292053,0.8618432879447937,-1.3650869131088257,0.8453645706176758,0.19043394923210144
-0.055701856984911466,-0.09076200722340921,0.1644663716233771,0.9806174751788337,-0.13955153634037554,-0.16195817235860333,0.3209974678783635,-0.15968340635299683,0.13909921050071716,-0.9773191213607788,0.19830237329006195,-0.027382157742977142,1.0751354694366455,-1.3221734762191772,1.21824049949646,0.4151596128940582
-0.07393133134701285,-0.07338104299548986,0.16758448934359463,0.9803391411012822,-0.17037365404432134,-0.12114290131492812,0.32826037443510026,-0.11909707635641098,0.1695507913827896,-0.9782987236976624,0.13117575645446777,-0.2652319073677063,1.0547531843185425,-0.14711780846118927,0.7564706802368164,0.10073166340589523
-0.07218301152379016,-0.060338848272788424,0.16609950655702446,0.9816109328141586,-0.1624695975665834,-0.0958871098947121,0.3274342961510833,-0.09447937458753586,0.16175596415996552,-0.9822976589202881,0.13020190596580505,-0.22357439994812012,0.9939754605293274,0.5194077491760254,0.47386887669563293,-0.13775822520256042
-0.053937087759384994,-0.055695694767429214,0.16383476048269385,0.9834363681434277,-0.12465978839217999,-0.09272412279403959,0.3243652003312344,-0.09187275916337967,0.12433736026287079,-0.9879775643348694,0.1492615044116974,-0.2123633325099945,1.0452266931533813,1.2509748935699463,-0.24183706939220428,-0.21250803768634796
-0.022410708034729276,-0.05852901694831885,0.16063945318799522,0.9850213668239585,-0.06299584907236876,-0.10853238403276469,0.3198951221027225,-0.10810453444719315,0.0629543885588646,-0.9921442270278931,0.14885196089744568,-0.02632991224527359,1.0422539710998535,1.6899365186691284,-0.8571712970733643,-0.2124558389186859
0.012360737304960602,-0.08265277224154033,0.1592017091660495,0.9837025243076082,-0.0019983495679798584,-0.16732723829612162,0.3207286869415888,-0.16654713451862335,0.001998555613681674,-0.9860314726829529,0.1321714222431183,0.21490627527236938,-0.10328956693410873,1.7642041444778442,-0.797955334186554,0.06836582720279694
0.04369514346980056,-0.10106713825721209,0.15848002068453726,0.9812035679528239,0.05373927899301861,-0.21412371914232525,0.3260429766223954,-0.21218442916870117,-0.05371320620179176,-0.9757523536682129,0.08430831134319305,0.08733133971691132,-1.2333176136016846,1.1591527462005615,-0.7583813667297363,0.24850834906101227
0.0770120184878335,-0.11987290370900837,0.1543467333518425,0.9776895144149751,0.11382936135330703,-0.26286864154000555,0.32821710590462433,-0.2581700086593628,-0.11358348280191422,-0.9593992829322815,-0.46032288670539856,-0.20236468315124512,-3.0179872512817383,1.5937604904174805,-0.4870918095111847,-0.49195268750190735
0.10390584152962622,-0.11322657719364693,0.15590940469051312,0.9757436105556485,0.1682575343023936,-0.25990547095604855,0.3389322553478951,-0.25335997343063354,-0.16746452450752258,-0.9527666568756104,-0.37728479504585266,-0.3094834089279175,-2.1923460960388184,1.0861520767211914,0.19052746891975403,-0.03600679337978363
0.12233222404605154,-0.10149385679853104,0.1600854266067577,0.9742210242127152,0.20734436477667634,-0.244537697547182,0.3513011621673098,-0.23692205548286438,-0.2058616578578949,-0.9494677186012268,-0.14901387691497803,-0.20097753405570984,-1.1124540567398071,1.0717589855194092,0.7545877695083618,0.15566766262054443
0.13877668603548776,-0.0804107120761573,0.16916908288990443,0.9724490197556519,0.24514860747440273,-0.21117730218280914,0.37058748144047915,-0.20334403216838837,-0.2427002638578415,-0.9485503435134888,0.06374433636665344,0.049040623009204865,0.5059004426002502,0.8775920867919922,0.8288966417312622,0.19122648239135742
0.14677764183562303,-0.06468101560934952,0.17485413546361897,0.9714416607804273,0.2656663985293011,-0.1844767993190562,0.38089391999392846,-0.17699696123600006,-0.2625521123409271,-0.9485454559326172,0.0334012508392334,0.35770928859710693,1.4028863906860352,-0.07358849048614502,-0.19124387204647064,0.3726566731929779
0.14423043231569543,-0.075100087272569,0.18051828173980217,0.9700365122475401,0.2554736288936731,-0.2058572481437026,0.39451108431249826,-0.1977720558643341,-0.252703458070755,-0.9471151828765869,0.05644270405173302,0.06589412689208984,0.563245952129364,0.041627395898103714,0.09834492206573486,0.25801488757133484
0.14179760349359963,-0.06868527699128842,0.18601397468318545,0.9698323176673328,0.25215041985340964,-0.19325275991147847,0.4035672153983461,-0.18597900867462158,-0.24948672950267792,-0.9503515958786011,0.08474839478731155,0.2637730836868286,0.8866515755653381,-0.3525265157222748,0.40714481472969055,0.33529695868492126
0.12420753266161813,-0.06416507934511453,0.19528370920166935,0.970731577575211,0.2178014713141967,-0.17821554444217252,0.41657993254300296,-0.17308549582958221,-0.2160833328962326,-0.9609107375144958,0.1966993510723114,0.2263331562280655,0.9509738683700562,-1.0620543956756592,0.6302434206008911,0.5805771946907043
0.1028272815470739,-0.057726212055657214,0.20785959767588078,0.9710246061429668,0.17661449565188048,-0.15795740875750375,0.43577325716727733,-0.15485435724258423,-0.17569753527641296,-0.9721885323524475,0.19719341397285461,0.15614597499370575,1.2086961269378662,-0.8305283188819885,0.30526304244995117,0.7046020030975342
0.0890602299162415,-0.06335670686180737,0.2221884083708898,0.9688584499125444,0.1449260556014716,-0.1648086824351479,0.46285468063394525,-0.1623435914516449,-0.14441904425621033,-0.9761084318161011,0.26269015669822693,0.00606711208820343,1.031927466392517,-0.5251611471176147,-0.2888290286064148,0.8031681776046753
0.08252618965443496,-0.06868438934999765,0.2337983122306448,0.9663387089271325,0.12772692440072472,-0.1736117078349861,0.48589209214833795,-0.1713336557149887,-0.12737970054149628,-0.9769437909126282,0.28940004110336304,-0.025392934679985046,1.0141574144363403,-0.21800227463245392,-0.054595548659563065,0.5240830183029175
0.07960587014507892,-0.08772925954256086,0.24246680436897977,0.962899977650292,0.11098985040816531,-0.21038615347854697,0.5050914489969128,-0.2075524777173996,-0.11076191067695618,-0.9719330072402954,-0.013821430504322052,-0.31759968400001526,0.04867468774318695,-0.3938833475112915,-1.4635748863220215,0.36425212025642395
0.08271357983932379,-0.11008163966977591,0.24471809954956697,0.9597674834226444,0.10508698002869335,-0.25597140979109273,0.5128495645079214,-0.25178849697113037,-0.10489346086978912,-0.9620810151100159,-0.12143047153949738,-0.2684507966041565,-0.7765286564826965,-0.20121639966964722,-1.3737318515777588,-0.16027788817882538
0.08793863152226808,-0.12265124183585897,0.24059557867812661,0.9588208209696185,0.10983680300943033,-0.28295970163054424,0.5073646223076732,-0.27751633524894714,-0.10961588472127914,-0.9544469714164734,-0.3629595637321472,-0.2537824511528015,-1.534878134727478,0.49378037452697754,-0.993820309638977,-0.08748316764831543
0.1053669567617931,-0.12940788657265176,0.238221223108573,0.9567665083521038,0.14042883451307145,-0.30551932907265,0.509702783447192,-0.29782745242118835,-0.13996753096580505,-0.9443028569221497,-0.5200937986373901,-0.42551320791244507,-2.5306708812713623,1.0660336017608643,0.4210134744644165,-0.11891268193721771
0.12026244568941934,-0.11423762371671727,0.23751741638784274,0.9571166787969327,0.17686417309552213,-0.28397849624283994,0.5118387757412994,-0.2758062183856964,-0.17594332993030548,-0.9449734687805176,-0.2384505420923233,-0.31166672706604004,-1.8999427556991577,0.6208105683326721,0.9211813807487488,-0.15772509574890137
0.123962622331113,-0.09594370030846185,0.23715690120354216,0.9587412922618421,0.19339198742497177,-0.24997444942472818,0.5093631337806797,-0.24276746809482574,-0.19218853116035461,-0.9508562088012695,0.028920656070113182,-0.20704787969589233,-0.7696934938430786,0.13907749950885773,0.8428460955619812,-0.18659424781799316
0.1184572261619212,-0.06744587456120384,0.23821315058619266,0.9615994740326728,0.1969547068875769,-0.1909764784272028,0.5045994235041412,-0.18614789843559265,-0.19568361341953278,-0.9628379344940186,0.28936198353767395,-0.050672367215156555,0.6230201125144958,0.03328859806060791,2.089679002761841,-0.10790371149778366
0.11556316585704675,-0.04286147991450071,0.23784005211347553,0.9634523173112477,0.20369656669629668,-0.14093118676154573,0.4984738849321898,-0.13756100833415985,-0.2022906392812729,-0.969616174697876,-0.0652274489402771,-0.07033111900091171,1.3857121467590332,0.05121280252933502,-0.5584442019462585,-0.043554067611694336
0.1234761033705633,-0.05302819947509108,0.23539018756949925,0.9625660289307267,0.21438154268142362,-0.16471377569623458,0.4974385124814097,-0.1602163314819336,-0.21274295449256897,-0.9638833999633789,0.04228602349758148,-0.05908145755529404,0.7233493328094482,0.573626697063446,-0.12104425579309464,-0.22342848777770996
0.1356848330901508,-0.048804748327968966,0.22839808870653797,0.9628302550878189,0.24132465214671334,-0.1613147027553517,0.48542216283320055,-0.15596161782741547,-0.23898889124393463,-0.9584155082702637,0.06747765094041824,0.19260312616825104,0.9387127161026001,0.36893945932388306,-0.016897819936275482,-0.43908441066741943
0.13770910702580386,-0.048611083495181666,0.2226404411169337,0.9639007370905646,0.24631333793654023,-0.1605453335694993,0.4739102819015555,-0.15503168106079102,-0.24383001029491425,-0.9573463797569275,0.13460281491279602,0.3183968663215637,1.05829918384552,-0.029948698356747627,-0.11822295188903809,-0.2088107168674469
0.13754247795747487,-0.0506263618929451,0.2198422948427803,0.9644628070767265,0.24550846842544438,-0.1637488800500902,0.46847428610621455,-0.1581297218799591,-0.24304935336112976,-0.957038164138794,0.20162220299243927,0.43552374839782715,0.9698131680488586,-0.09438732266426086,-0.11008772999048233,0.03134538605809212
0.13979380932948743,-0.052103633239035003,0.2205506323066591,0.9638985935286963,0.24907863655354676,-0.16806044351521152,0.470965699005452,-0.1621083915233612,-0.24651092290878296,-0.9554858803749084,0.1755102425813675,0.3204483687877655,0.9965832829475403,0.26743489503860474,-0.1496225744485855,-0.005692146718502045
0.14850786334985344,-0.0558965900593297,0.2202320326030092,0.9624546517342871,0.26431045218550614,-0.18020623396356308,0.4739197571601257,-0.17300817370414734,-0.2612435221672058,-0.9496420621871948,0.2600971758365631,0.3252483010292053,1.014224648475647,0.43276336789131165,-0.2705745995044708,0.006136894226074219
0.1554437968040114,-0.07441842404160733,0.21866659763560647,0.9604603223226668,0.2692925509463582,-0.22060397162249856,0.4777097300963744,-0.21093255281448364,-0.266049325466156,-0.9405983090400696,-0.06806030124425888,-0.11403143405914307,0.058739855885505676,-0.35186147689819336,-2.2721951007843018,0.07691103965044022
0.1674723410280348,-0.10117231974728662,0.2095769101805075,0.9580161015661164,0.2822065950362033,-0.27850760026648974,0.4705508567787347,-0.2640460133552551,-0.27847540378570557,-0.9234344363212585,-0.058540716767311096,-0.16993336379528046,-1.1297982931137085,0.6592227816581726,-0.8769979476928711,-0.41486456990242004
0.17658854714567968,-0.12130174665962318,0.2036997649786043,0.9553056751076412,0.29211034071763603,-0.3227091766138847,0.4680459728839101,-0.3037025034427643,-0.2879735827445984,-0.9082048535346985,-0.578004002571106,-0.8475798964500427,-2.140166759490967,0.24318760633468628,-2.196089029312134,-0.18599888682365417
0.19620740653548374,-0.12805026617912374,0.19735423580223432,0.9519228913720328,0.32890415538142137,-0.34630769761379626,0.4668863245810546,-0.3212326169013977,-0.32300588488578796,-0.8902116417884827,-0.6312763690948486,-0.7248282432556152,-2.3448219299316406,0.49510908126831055,-0.09164922684431076,-0.17151916027069092
0.20426666827544296,-0.12388142105814111,0.19478117559717784,0.9513091197830151,0.3473230745425007,-0.3419183717989021,0.4644737367543679,-0.31527358293533325,-0.3403817415237427,-0.8858571648597717,-0.4025098979473114,-0.48334622383117676,-1.7139018774032593,0.11837168037891388,0.4710467755794525,-0.17698219418525696
0.1949769150062081,-0.09849923478333487,0.20026279264368463,0.9550794814406927,0.33946793488621374,-0.2862490880263625,0.46276080587902574,-0.2662423849105835,-0.3329852223396301,-0.9045639038085938,0.08002153038978577,0.0722813606262207,0.23821745812892914,-0.6487327814102173,2.0165517330169678,0.190420001745224
0.16851921744950438,-0.06894160931706463,0.20833416930496146,0.9609606233953627,0.29961761497058403,-0.21379419048902631,0.4593785432130029,-0.2027169018983841,-0.2951546609401703,-0.9336967468261719,-0.04179811477661133,0.16019858419895172,1.6286876201629639,-1.3532706499099731,0.254150927066803,0.40178051590919495
0.15392317494887875,-0.07947017874050047,0.210124138592642,0.9622059204731779,0.26593796393354957,-0.2275056210356477,0.46056479905694986,-0.21761922538280487,-0.26281416416168213,-0.9399843811988831,0.04589695483446121,-0.06291735917329788,0.5575524568557739,-0.18269941210746765,0.2504887580871582,0.05881321430206299
0.15379282061927496,-0.07262582494717357,0.21088277806972494,0.9626015674863121,0.26867203612660523,-0.2139284376002603,0.460358524393587,-0.20468391478061676,-0.2654511332511902,-0.9421465992927551,0.0592966228723526,0.2628243565559387,0.9401828050613403,0.2740318775177002,0.14306753873825073,0.11052090674638748
0.17011766418931076,-0.08073990670388309,0.21225665521755321,0.9588995801448155,0.29629257815970317,-0.23969352595043106,0.4716239220745242,-0.22706006467342377,-0.29197612404823303,-0.9290821552276611,0.13773098587989807,0.41178828477859497,1.1790937185287476,1.169447422027588,-1.2224745750427246,0.1243194043636322
0.20199181791933074,-0.09162067686528655,0.20952812725718042,0.9523145994974802,0.353651141188079,-0.2798847694922611,0.48347013471115535,-0.2591492831707001,-0.3463250696659088,-0.9016100168228149,0.30790942907333374,0.4542176127433777,0.9213592410087585,1.4299317598342896,-0.672552764415741,-0.2749407887458801
0.22742449952752888,-0.09615745526538441,0.20494430100518987,0.9471166330339285,0.40213205410335484,-0.30388937525930043,0.4886038666260091,-0.2753632962703705,-0.39138099551200867,-0.8780637979507446,0.3987986743450165,0.37249210476875305,0.8080427050590515,1.0969496965408325,-0.33558982610702515,-0.21514302492141724
0.24848045298473215,-0.09443001198551712,0.20140183261642192,0.9427501812452384,0.44501700511713593,-0.3132471248121255,0.49236556044329344,-0.27813658118247986,-0.4304729998111725,-0.8586809635162354,0.47664758563041687,0.40959709882736206,0.8149827122688293,0.8260427713394165,-0.05738261342048645,-0.20800337195396423
0.2566330704234862,-0.09207134362763304,0.20014557453465703,0.9410655251640938,0.4624719289340739,-0.31352816405405576,0.49351060161441856,-0.2760182023048401,-0.44616150856018066,-0.8513247966766357,0.46267449855804443,0.3976857662200928,0.8170534372329712,-0.04619424045085907,-0.1429194062948227,0.061765361577272415
0.2527571868261312,-0.11219122338704038,0.1991480073564302,0.9401420784490279,0.4451242393828334,-0.3525236709344016,0.49805693570492116,-0.3116234838962555,-0.4305697977542877,-0.8470540046691895,0.0897262841463089,-0.09278101474046707,-0.2962087392807007,-0.4328860640525818,-1.310282588005066,0.22293396294116974
0.2493390227593833,-0.134293812089728,0.1960870069846065,0.9387999407029429,0.4284840487927336,-0.3948976533840965,0.4988208243421065,-0.34993425011634827,-0.41549214720726013,-0.8395905494689941,-0.05165177583694458,-0.1712729036808014,-1.2973417043685913,-0.31879398226737976,0.07309888303279877,0.31320518255233765
0.2513670197748462,-0.15900450302784375,0.1937029363604209,0.9348858306243831,0.4207001495626094,-0.4471370382292131,0.505621277483525,-0.3946830928325653,-0.40839943289756775,-0.8230645060539246,-0.97046959400177,-1.4361865520477295,-2.9732930660247803,0.8211228847503662,-1.4129465818405151,-0.9130927920341492
0.26653129738227366,-0.1532005402666766,0.19227728660488672,0.9319442803540154,0.4532288472821142,-0.44629011300518995,0.5114777723830684,-0.3880445063114166,-0.43787044286727905,-0.8109814524650574,-0.6856784224510193,-0.8641554713249207,-2.3965306282043457,0.5036241412162781,0.17058128118515015,0.08822962641716003
0.27173957486892136,-0.14287917355263377,0.19660108915222532,0.9311773717546519,0.4666478591378233,-0.43078942165878686,0.5200495322944104,-0.3729402422904968,-0.44989487528800964,-0.8114864230155945,-0.422870397567749,-0.629692018032074,-1.5730535984039307,0.16341981291770935,0.6935314536094666,-0.0015805559232831001
0.2591650314021493,-0.12165522666998971,0.20602549982407437,0.9357281413506504,0.44991374953509494,-0.3805423152690344,0.5215264534301303,-0.3344615697860718,-0.4348876476287842,-0.8360670804977417,0.12669488787651062,-0.0009033158421516418,-0.1561090499162674,-0.8372102975845337,1.988508701324463,0.3240700662136078
0.2249654540494372,-0.08213484237420317,0.21630559590656445,0.9464968599817165,0.40098537075555224,-0.27815725955176196,0.5062288838539202,-0.252803236246109,-0.39032551646232605,-0.8852889537811279,0.24748758971691132,0.48075783252716064,1.7195701599121094,-1.993765115737915,1.354596495628357,0.18719762563705444
0.1899039667243411,-0.09443512019234619,0.21396804994745583,0.9535387663955961,0.3275765484661866,-0.2796719300415475,0.48799078435175763,-0.2613617777824402,-0.32174918055534363,-0.910037100315094,0.12051738798618317,-0.10807789117097855,0.4605047106742859,-1.561298131942749,-0.04791322350502014,-0.31885355710983276
0.1665938928190276,-0.08528251805124708,0.21032770176438997,0.9595498165664714,0.28779199921315163,-0.24625103061269277,0.4674218507361208,-0.23374420404434204,-0.2838355004787445,-0.9299468398094177,0.23035742342472076,0.3102278709411621,0.9265620708465576,-1.219702124595642,1.1063284873962402,-0.21319517493247986
0.13403149185073826,-0.07574677147816636,0.20830163478688982,0.9658719164358585,0.22936392759795898,-0.20911888080780244,0.4489920902617645,-0.2021612524986267,-0.22735793888568878,-0.9525960087776184,0.08939744532108307,0.1394256353378296,1.1441067457199097,-1.5840204954147339,0.20803171396255493,-0.013139963150024414
0.11250530509667492,-0.0764826227469324,0.20621564103772874,0.9690037378850561,0.1875905878934681,-0.19941910636329133,0.4381893703655004,-0.19462452828884125,-0.18649208545684814,-0.9629859924316406,0.10494834184646606,0.052485279738903046,1.1090916395187378,-0.4208299219608307,0.19983211159706116,-0.10778895020484924
0.1150081191793101,-0.07736852182842607,0.201969388009443,0.9695337614987916,0.19295140739258787,-0.20155604411070474,0.43032907540953397,-0.1964789628982544,-0.19175614416599274,-0.9615745544433594,0.0850379690527916,0.1806371510028839,1.1675275564193726,0.42960530519485474,-0.5299838781356812,-0.2067616879940033
0.13358739016202115,-0.08550862228670203,0.19843003410339138,0.9671960508512905,0.2264046998918136,-0.2260634569983222,0.4305138333616635,-0.21842263638973236,-0.2244752198457718,-0.9496854543685913,0.16483387351036072,0.2396623194217682,1.0516449213027954,1.2336500883102417,-0.6670878529548645,-0.13753066956996918
0.16713303919542635,-0.09235489856678214,0.1965064836841492,0.9617289131206449,0.2891907571227486,-0.25667726537432495,0.44068130267600447,-0.24332614243030548,-0.28517645597457886,-0.9270743131637573,0.18182317912578583,0.3689391314983368,1.02750563621521,1.7007147073745728,-0.8029190897941589,-0.06990474462509155
0.1985031729228914,-0.10274564796625879,0.197465381333735,0.9544880817370032,0.3451739884333424,-0.2960474850780134,0.4599820033892607,-0.2745339274406433,-0.3383601903915405,-0.9000797271728516,0.27244308590888977,0.44385889172554016,0.7919341921806335,1.046668529510498,-0.8088576793670654,0.14325204491615295
0.21010963694325555,-0.13232596481659284,0.19620331818125658,0.9486032481515219,0.3540460948211758,-0.3635026184361054,0.47364684439179966,-0.3334980309009552,-0.34669557213783264,-0.8766876459121704,0.05753892660140991,-0.2011878788471222,-0.6879464387893677,-0.011619806289672852,-1.306993007659912,-0.13932059705257416
0.22352155552860065,-0.1442570520635281,0.1966773261641465,0.9436875403491434,0.3737668885925914,-0.39727034819667695,0.4870316083291548,-0.36019033193588257,-0.3651246130466461,-0.8584561347961426,-0.05784408748149872,-0.047943808138370514,-1.129407286643982,0.1692543625831604,-0.751753568649292,0.2369653880596161
0.22976941391668565,-0.16648622642026425,0.19227410002650436,0.9394249076167241,0.37651329553025337,-0.4460185336282425,0.49012359977443426,-0.40115997195243835,-0.36768001317977905,-0.8389768004417419,-0.8318018913269043,-1.086276888847351,-3.4540581703186035,0.8834766149520874,-0.04258051514625549,-0.230850949883461
0.238260853804909,-0.16467276006090928,0.19365596516010783,0.9373431761282268,0.3929168839564203,-0.4490042894086891,0.4983020807934279,-0.40099096298217773,-0.3828844130039215,-0.8322294354438782,-0.7332267165184021,-0.897097110748291,-2.597838878631592,0.2421858161687851,0.029851026833057404,0.11389622092247009
0.23822904455007646,-0.15611422732695615,0.19601616182401713,0.9383246600062224,0.396151269303192,-0.4321233951378154,0.49992592008847675,-0.3863650858402252,-0.3858703374862671,-0.8377506732940674,-0.4223763346672058,-0.5786882638931274,-1.5816775560379028,-0.24716226756572723,0.6956363916397095,-0.024376392364501953
0.22367370801905467,-0.13902879614957356,0.19924895853729097,0.9438967598374761,0.3756175464010038,-0.38757101936073457,0.49063436275672956,-0.3515911102294922,-0.36684685945510864,-0.861282229423523,0.012665955349802971,-0.07608720660209656,-0.20620577037334442,-0.8797181844711304,1.3588335514068604,0.02682499587535858
0.19225806741812523,-0.10444136570424481,0.20363448610913001,0.9542861114668071,0.33038018855823953,-0.29789419783823745,0.47049419227225336,-0.27763456106185913,-0.32440245151519775,-0.9042577743530273,0.3652879297733307,0.4832584261894226,1.4953889846801758,-1.7485549449920654,2.104600191116333,0.011401623487472534
0.1530079815482446,-0.10915047064877759,0.20494712188211783,0.9605578801679047,0.2518601939447378,-0.2851298711522242,0.45676117316124454,-0.2724077105522156,-0.24920567870140076,-0.9293495416641235,0.10817453265190125,-0.2785741984844208,0.5851579308509827,-1.8225665092468262,-0.3627856373786926,-0.05579301714897156
0.12973141441128433,-0.10722850759751487,0.20100819048074353,0.9650221088605333,0.20879349547038567,-0.26806108616491814,0.43896953398619404,-0.25910985469818115,-0.2072795331478119,-0.9433436989784241,0.3125705420970917,0.012890726327896118,0.7312234044075012,-0.8251311182975769,0.8812819719314575,-0.22131036221981049
0.10839012535070564,-0.0927081146397611,0.1955315869938909,0.9702701919351173,0.17497212257971348,-0.2277004520404858,0.4177764479403318,-0.22229115664958954,-0.17408046126365662,-0.9593136310577393,0.26494723558425903,0.05587570369243622,1.0467458963394165,-1.059016227722168,0.6407971382141113,-0.3127238154411316
0.09117318110748174,-0.08664033276262212,0.18931939327754144,0.9738270206787181,0.14527892718540578,-0.20690428277735012,0.3991346271013536,-0.20326703786849976,-0.14476820826530457,-0.9683618545532227,0.22705528140068054,0.07508964836597443,1.1636292934417725,-0.4065675139427185,0.3807942867279053,-0.31817570328712463
0.09179304603831975,-0.08330857060616774,0.18215492198671882,0.975424720890721,0.14927808028951345,-0.19948795601172337,0.3842021815576604,-0.1959635317325592,-0.14872406423091888,-0.9692674875259399,0.07798920571804047,0.12451905757188797,1.1614536046981812,0.3357211947441101,-0.2463221698999405,-0.37286078929901123
0.10770434521063095,-0.08795608947348094,0.17369538516843075,0.9749325183331137,0.18043121339343618,-0.21399499505618885,0.3720548632266653,-0.20891794562339783,-0.17945358157157898,-0.961327075958252,0.08771663159132004,0.2586599588394165,1.0449069738388062,0.9441782236099243,-0.4753929674625397,-0.47236454486846924
0.12850427971803288,-0.09463888363085528,0.1673929177345129,0.9728874276753481,0.22013015437645422,-0.23494005617723293,0.36686134200406434,-0.22716732323169708,-0.2183564156293869,-0.949060320854187,0.11744338274002075,0.40235933661460876,1.0008550882339478,0.7925512194633484,-0.6665060520172119,-0.24052999913692474
0.14014366981701226,-0.1060228184271524,0.1623654415273824,0.97095654962154,0.24001577035457322,-0.2617954193910142,0.3631263650995073,-0.2513960301876068,-0.23771771788597107,-0.9382379055023193,0.09350128471851349,0.6131962537765503,0.7330695986747742,-0.08102361857891083,-0.6776279211044312,-0.07768281549215317
0.1307911750411405,-0.14649384003006172,0.15819143896949256,0.9676822193783703,0.20828313497440165,-0.33850371474307844,0.3598008329882811,-0.32489898800849915,-0.20678022503852844,-0.9228665232658386,-0.05811144411563873,0.0033446773886680603,-1.025475025177002,-0.9603114128112793,-1.5559250116348267,-0.08278243243694305
0.13445731714211634,-0.15498061916247735,0.16116461597984694,0.9653643593888028,0.21121271570088251,-0.3579455724269417,0.36919090905268437,-0.34256500005722046,-0.2096455991268158,-0.9158045649528503,-0.3099225163459778,0.15288318693637848,-0.9774736166000366,0.2009628713130951,-1.0749702453613281,0.4154871106147766
0.15119863593242816,-0.18122294286665833,0.15349839564686124,0.9595496861422625,0.23673541018660982,-0.41753949127933154,0.36762936326610846,-0.39420226216316223,-0.23453012108802795,-0.8885945081710815,-0.8889182806015015,-0.16931471228599548,-3.851074695587158,1.04548978805542,0.2729897201061249,-0.129878431558609
0.15158441747956175,-0.17888959565097157,0.155977408449161,0.9595269582690622,0.2373144534013703,-0.4135350997527182,0.3722990066726709,-0.3905861973762512,-0.23509298264980316,-0.8900414109230042,-0.6322755217552185,-0.36527809500694275,-2.8112974166870117,-0.35095274448394775,0.7003645896911621,0.2659187316894531
0.1360707956309092,-0.16056519147085851,0.16420168708841082,0.9637123472675203,0.21110046382911526,-0.3706313828786812,0.3772444735029502,-0.35416334867477417,-0.20953583717346191,-0.9114071726799011,-0.17295199632644653,-0.08514457195997238,-0.9181006550788879,-0.7703039646148682,1.539430022239685,0.3854770064353943
0.11376817999919667,-0.12701517932130765,0.17314594073340137,0.970022975640086,0.17766434888462512,-0.2946272207385165,0.37970438565013126,-0.28581222891807556,-0.1767309457063675,-0.9418479204177856,0.20684848725795746,0.07712545990943909,0.7327266335487366,-0.5210327506065369,3.1030771732330322,-0.05473722517490387
0.09447861460221464,-0.11334507050203894,0.17373934705807453,0.9736742187851811,0.14510647390274706,-0.25913512459768506,0.3720965838678665,-0.2535516023635864,-0.14459757506847382,-0.9564534425735474,-0.18210819363594055,-0.1698545664548874,0.7172057032585144,-1.0462335348129272,-1.7297261953353882,0.060131922364234924
0.0789008189858454,-0.11794356354265462,0.17154123306445643,0.9749040162792506,0.11362139622787422,-0.2616812322742265,0.3633158731710378,-0.2570367455482483,-0.11337686330080032,-0.9597280025482178,0.14790025353431702,0.11642562597990036,0.7765500545501709,-0.3452354371547699,0.6790153980255127,-0.0006806701421737671
0.06839227560419155,-0.10546939560056458,0.17134287740823229,0.9771593439396806,0.09767266754539189,-0.23275306570547727,0.3585938773905446,-0.2295578122138977,-0.097517229616642,-0.9683974385261536,0.20437851548194885,0.18598124384880066,1.0120054483413696,-0.6306196451187134,0.4707481861114502,0.05059974640607834
0.045837944250627774,-0.10558534525511225,0.17333630528446897,0.9781131602418958,0.053090782784137175,-0.22463797344959024,0.35677780287800304,-0.22243952751159668,-0.05306563526391983,-0.9735012650489807,0.3147737979888916,0.07876624166965485,0.9578396081924438,-1.2208236455917358,0.20236779749393463,0.2727489173412323
0.026461524602519132,-0.09913039610880438,0.17643607950420662,0.9789501527467996,0.01682946463092077,-0.2048841956930916,0.3583614023900177,-0.20342490077018738,-0.016828462481498718,-0.9789459109306335,0.26183390617370605,0.00718708336353302,1.0450263023376465,-0.4996948838233948,0.5547316074371338,0.22525501251220703
0.022970557314533013,-0.09499843676620036,0.1791556155396729,0.9789540420999518,0.010935450986076935,-0.19548307255943068,0.36308072206001735,-0.19422875344753265,-0.010935026220977306,-0.9808953404426575,0.16228893399238586,-0.16969037055969238,0.9963439106941223,0.3041379451751709,-0.055479682981967926,0.020838133990764618
0.039630612762904076,-0.09685930968073875,0.1779847315578447,0.9784524920557132,0.04308771836458502,-0.2052796480700595,0.36431259863867066,-0.20365169644355774,-0.04307417571544647,-0.9780954122543335,0.1632305234670639,-0.11367056518793106,0.9951833486557007,1.187423825263977,-0.3722657561302185,-0.2899653911590576
0.06845649275342379,-0.10164747646082059,0.17400092045527277,0.9770902373269925,0.09856233627146112,-0.2254504540455852,0.36363325658281304,-0.22246043384075165,-0.09840261936187744,-0.969963014125824,0.26989126205444336,0.003871530294418335,1.0821665525436401,1.4836618900299072,-0.5571010112762451,-0.32687580585479736
0.10091971162667478,-0.11666017332907544,0.17050398252668947,0.9732081657619136,0.15729758123793644,-0.2679470090362977,0.3681190369392164,-0.26148363947868347,-0.15664951503276825,-0.9524112939834595,0.16195552051067352,0.1279258131980896,0.8270126581192017,1.080545425415039,-2.7687764167785645,0.19902130961418152
0.13192699718702902,-0.16274087665151132,0.164810008498182,0.9638197756386948,0.2020367287565245,-0.3732114397353185,0.3769880966774044,-0.3571914732456207,-0.20066483318805695,-0.9122214317321777,-0.03270155191421509,-0.0734228640794754,-0.8811041116714478,1.8454906940460205,-0.8787226676940918,-0.07798600196838379
0.17053680048669542,-0.18583485689480916,0.16128330496140367,0.9541334065101652,0.2687075587234805,-0.4388279992034736,0.3951749196525987,-0.4096319079399109,-0.26548537611961365,-0.872765302658081,-0.7444988489151001,-0.87458735704422,-2.0101919174194336,1.4220870733261108,-3.235447883605957,-0.8622905611991882
0.21113537325591844,-0.19941474674022291,0.15004773724916234,0.945061615638786,0.3460965509455523,-0.48706202055629944,0.4017183457516496,-0.44027915596961975,-0.33922818303108215,-0.8313113451004028,-1.0430374145507812,-0.3964579999446869,-2.7859010696411133,1.35125732421875,-0.25683921575546265,-0.25213950872421265
0.23415175017354858,-0.18907950624285938,0.15615880667584814,0.9407637860657425,0.39142942445486784,-0.4824843932533784,0.42645978060780276,-0.4288879632949829,-0.3815099000930786,-0.8188439011573792,-0.6318090558052063,-0.4606238603591919,-1.8262085914611816,1.4435386657714844,1.0383296012878418,0.1691068410873413
0.26117138259198397,-0.16985752478583033,0.16634182126500974,0.9355578702906191,0.44690111150292866,-0.4654057407466575,0.4595302361642956,-0.40471047163009644,-0.43217283487319946,-0.8058759570121765,-0.1289965659379959,-0.06456349790096283,-0.3442250192165375,1.480798363685608,0.7463503479957581,0.0554085373878479
0.2799163826817948,-0.13989421225978171,0.17700965498121635,0.9331366349639998,0.4925510281363014,-0.421102639335972,0.48227699121521606,-0.36017656326293945,-0.4728749990463257,-0.8041529655456543,0.3492788076400757,0.4774864614009857,1.1027047634124756,0.8197346925735474,2.0147151947021484,-0.20894864201545715
0.28555853685203014,-0.13753003861135402,0.18306462121193182,0.9306069727877204,0.5019452662961211,-0.4238281358695239,0.4986754017560862,-0.36052408814430237,-0.48113155364990234,-0.7990837693214417,-0.1162329763174057,0.05168556794524193,0.6403946876525879,0.26394757628440857,-1.021866798400879,0.28197526931762695
0.2957566673086034,-0.13743385392899674,0.1845823017416203,0.9271297335419011,0.5209148868262505,-0.433099694081597,0.5101716416448292,-0.36402085423469543,-0.4976736605167389,-0.7872800230979919,0.12838131189346313,0.3061593472957611,0.650717556476593,0.5511648654937744,0.2953595519065857,-0.20880627632141113
0.29035279178489615,-0.125808944591241,0.1830830896554817,0.9307782027781246,0.5171917388200608,-0.4025382898775861,0.49627468560350113,-0.3405177593231201,-0.49444088339805603,-0.799734890460968,0.3249032497406006,0.5279552936553955,0.6906137466430664,-1.155242681503296,0.8413214087486267,-0.11715880036354065
0.2618584879457595,-0.11366828825856366,0.18560610472714173,0.9402447750384411,0.46701965152656405,-0.3557032965731093,0.4752473377331033,-0.31095704436302185,-0.45022687315940857,-0.8370194435119629,0.44080471992492676,0.420665442943573,0.9158783555030823,-1.2628939151763916,0.953856348991394,0.11139228940010071
0.23914081776066215,-0.10002393664866001,0.1884913591758033,0.9472476265837824,0.42832076527981366,-0.3124779584376967,0.461339842148004,-0.27964675426483154,-0.41534361243247986,-0.8656138777732849,0.41195738315582275,0.3393077552318573,1.025570273399353,-0.8010332584381104,0.7818596959114075,-0.030967995524406433
0.22397491784972381,-0.08904045156740749,0.1869389290514372,0.9523450015226753,0.4042317390120666,-0.2791524295991947,0.445218478441839,-0.2533336579799652,-0.3933123052120209,-0.8838141560554504,0.31552213430404663,0.27908211946487427,1.0724674463272095,-0.42708685994148254,0.4118199646472931,-0.25882869958877563
0.22229695477109856,-0.0830314076601913,0.1821440318043036,0.9542083313922305,0.4049663821005705,-0.2635502116374938,0.43163983732119177,-0.23943859338760376,-0.39398762583732605,-0.8873798251152039,0.3325166702270508,0.2120194435119629,1.021067500114441,0.2527751326560974,0.2319343090057373,-0.4161147177219391
0.22970989213970222,-0.08401512824133707,0.17522526955477083,0.9536619210027888,0.4210160725672943,-0.26693983877827737,0.42078865239086516,-0.24074596166610718,-0.4086877703666687,-0.8803497552871704,0.2959893047809601,0.3536520004272461,0.908137321472168,0.17666581273078918,-1.0636450052261353,-0.04530815780162811
0.23789248117754005,-0.11639158991931166,0.16534608226514846,0.9500110171560288,0.4263070135923242,-0.3355486662636811,0.4179237273119873,-0.29981571435928345,-0.4135109484195709,-0.8597204685211182,0.12664732336997986,-0.04207910969853401,-0.6267749667167664,0.468031108379364,-1.2099213600158691,-0.26449882984161377
0.2452213951067594,-0.14084232593218432,0.15787221029740814,0.9461006689485094,0.4329363833717405,-0.3885924780025887,0.41718042839431396,-0.343929260969162,-0.41953784227371216,-0.8400599360466003,-0.09390813112258911,-0.2952514886856079,-1.5909922122955322,-0.2503642439842224,-1.3147696256637573,0.16593754291534424
0.26024442235529244,-0.1750906061498827,0.14865544656120072,0.9378261452497616,0.45122883060794766,-0.46778870485931434,0.4236663019930135,-0.405782550573349,-0.4360714852809906,-0.8032323718070984,-0.893776535987854,-0.8080193996429443,-3.6275110244750977,1.2279566526412964,-0.5964047908782959,-0.15530376136302948
0.2817884833055705,-0.17480112095951253,0.14974230959529478,0.9314597033233014,0.4922375666662876,-0.48393919950163156,0.44263643520393875,-0.41003167629241943,-0.47259876132011414,-0.7800797820091248,-0.7397263050079346,-0.739782452583313,-2.288529396057129,1.237781047821045,0.5432678461074829,0.04290756583213806
0.30262006552034165,-0.1606834663170093,0.15916734203856497,0.9258875193457878,0.5342935355557044,-0.47537312641956886,0.4729048900629493,-0.3938840329647064,-0.5092329382896423,-0.7652040123939514,-0.15452544391155243,-0.2852513790130615,-0.7589086294174194,1.202620506286621,0.6866760849952698,0.15896153450012207
0.31712156595242014,-0.13927312653928095,0.17156603955555316,0.9222809987012215,0.5670680385695045,-0.44845739644793603,0.5005560726897994,-0.365712434053421,-0.537161111831665,-0.7600739598274231,0.25566521286964417,0.31358665227890015,0.567686915397644,0.6074557304382324,1.2955492734909058,-0.039752282202243805
0.3021719104254551,-0.1265151811325067,0.1799526196680486,0.9275252834989229,0.5410201286976458,-0.41224480169091665,0.4991017004074287,-0.3434452414512634,-0.5150104761123657,-0.785372257232666,0.17358800768852234,0.43494850397109985,0.9431303143501282,-1.434346079826355,0.062248289585113525,0.7201279401779175
0.2825925637349027,-0.13221707574970745,0.18301826312686295,0.9322899741967913,0.49896860418994665,-0.4099490620824654,0.4935318238706909,-0.34996846318244934,-0.47851991653442383,-0.8053203225135803,0.20444750785827637,0.2521320581436157,0.6174263954162598,-0.5199568867683411,0.3032310903072357,0.07783462852239609
0.267719385984786,-0.12331465121773195,0.18370396614928539,0.9377487946050969,0.4743949331774666,-0.3796115761599976,0.4797201998139229,-0.3296385109424591,-0.45680007338523865,-0.8262397646903992,0.2318560630083084,0.50702965259552,0.77274090051651,-1.2765328884124756,0.5117509961128235,0.04797351360321045
0.23303193697008176,-0.11729749032105853,0.18669474651424126,0.9471444926489132,0.4089347956983803,-0.34372217649109066,0.4611918166394949,-0.3092069625854492,-0.3976319432258606,-0.8638749122619629,0.335365891456604,0.4105944037437439,0.8750460147857666,-1.7476139068603516,1.0915253162384033,0.2677158713340759
0.19918014722242405,-0.10331787506837412,0.1936775490013729,0.9550612068655301,0.34738242599792424,-0.29625642403156516,0.45250758961654947,-0.2745031714439392,-0.34043753147125244,-0.8993054628372192,0.22506476938724518,0.18945541977882385,1.0863759517669678,-1.2688533067703247,0.8059816360473633,0.23285415768623352
0.17832566322994495,-0.094587926353721,0.19662218671718995,0.9594753904251965,0.3099405302527559,-0.2674002796039961,0.4462752737606016,-0.2516350746154785,-0.30500176548957825,-0.9185062646865845,0.21889089047908783,0.10542512685060501,1.00163996219635,-0.55794358253479,0.557439923286438,-0.023265480995178223
0.17366518889448673,-0.0858850422967786,0.1959601119964714,0.961282492734679,0.3049259335718471,-0.24696233271323403,0.44033140661008385,-0.2331824153661728,-0.3002223074436188,-0.9249284267425537,0.20383933186531067,0.08259513974189758,1.0658034086227417,0.31651604175567627,0.27701646089553833,-0.17525267601013184
0.18589704344790248,-0.08129393189763268,0.19430960564584304,0.9597278442267367,0.33125362291442,-0.2438157557436867,0.44047908843594086,-0.22828319668769836,-0.3252285420894623,-0.9176672697067261,0.25276637077331543,0.18655820190906525,1.2336088418960571,0.8708792328834534,-0.16574425995349884,-0.04611942172050476
0.19906129071867418,-0.13273112364162,0.1858070365588714,0.9530125175830673,0.33640003016537134,-0.3537068910597593,0.44578157142070085,-0.32696276903152466,-0.33009082078933716,-0.8855141997337341,-0.013571467250585556,-0.684956967830658,-1.5773215293884277,-0.8055299520492554,-2.669426918029785,-0.8563728332519531
0.21505907469483368,-0.14781800802922485,0.18423323391101812,0.9476062676523178,0.3609002963532857,-0.39427057701088386,0.45689105322956725,-0.359388530254364,-0.3531164526939392,-0.863798975944519,-0.16031551361083984,-0.41993921995162964,-1.0665874481201172,0.9745304584503174,-0.8811994791030884,0.4221111834049225
0.24544782523095937,-0.18563060662259637,0.16103020812419844,0.9377451902799196,0.4121178584955367,-0.48502784385534753,0.44345075994538596,-0.4271973967552185,-0.4005505442619324,-0.8105934262275696,-0.8102933168411255,-0.810549259185791,-3.7796804904937744,2.2547078132629395,-0.12519299983978271,-0.5241013765335083
0.28877721940771683,-0.18089943606086353,0.15047431899240757,0.9280305656223472,0.502418689166263,-0.5032392185505745,0.4532415385380684,-0.4226674735546112,-0.4815465211868286,-0.7677663564682007,-0.47169482707977295,-0.8098818063735962,-1.9713903665542603,1.988468050956726,-0.23806867003440857,-0.9656301736831665
0.3267497762636261,-0.1676889392611038,0.14479470812579984,0.9187761952256313,0.5845916505399655,-0.5040346855600306,0.467276466693395,-0.40276044607162476,-0.55185866355896,-0.7302301526069641,0.10636153817176819,-0.12324928492307663,-0.1469050794839859,1.6171938180923462,0.5549887418746948,-0.602086067199707
0.33692519005791116,-0.15310479259162352,0.14110071217836848,0.9182216617775029,0.6132614202779706,-0.478094896017264,0.4589677068295389,-0.3762490153312683,-0.575537383556366,-0.7260808348655701,0.35267364978790283,0.8061826825141907,1.2911295890808105,-0.7148512601852417,-0.2637466788291931,0.05707300454378128
0.318018367166081,-0.17608292975284587,0.1383130582768847,0.9212647473846338,0.5671721022712949,-0.5109103521321671,0.44997481950778034,-0.4124101400375366,-0.5372488498687744,-0.7357183694839478,0.16246424615383148,0.1286911517381668,0.41897761821746826,-1.1633177995681763,-0.6606243252754211,0.11148914694786072
0.3020318977280132,-0.17879533231339073,0.1335645771973505,0.9268061235616725,0.5376146304627923,-0.5004039801498785,0.4268217008789732,-0.4120987057685852,-0.5120883584022522,-0.753618061542511,0.26672354340553284,0.3571731746196747,0.4421512484550476,-0.8986217975616455,0.6518124341964722,-0.3082774579524994
0.2763471053653035,-0.16281740678049852,0.13110679276809273,0.9380479266638844,0.4958287048779464,-0.44412242111826117,0.39190973373304316,-0.37792298197746277,-0.47576048970222473,-0.7942456603050232,0.29543834924697876,0.5746768712997437,0.7665266990661621,-1.892057180404663,0.9839615821838379,0.015417248010635376
0.234303402234991,-0.1499979059283804,0.13112891183798028,0.9515292408982322,0.4186801442655667,-0.3894705228444773,0.35764916135220687,-0.34690263867378235,-0.4065547287464142,-0.8452051877975464,0.3325703740119934,0.38906508684158325,0.9018219709396362,-2.009272813796997,1.0500214099884033,0.01433861255645752
0.195634634711005,-0.1322943719203043,0.1280186819586842,0.9632427098145151,0.3501247261156691,-0.3306410870404838,0.3232620997246436,-0.3049529194831848,-0.34301474690437317,-0.8884506821632385,0.2617589831352234,0.3610610365867615,1.0941969156265259,-1.7194081544876099,1.0054125785827637,-0.18466579914093018
0.16538844335046027,-0.1224451056679635,0.12355324306658629,0.9707669683325572,0.295115434006773,-0.29546880537595793,0.2974194841179532,-0.2785998582839966,-0.29085007309913635,-0.9153078198432922,0.25682204961776733,0.2743981182575226,1.0091118812561035,-1.218013048171997,0.5848534107208252,-0.17563486099243164
0.14763415566342095,-0.11406233254377908,0.11973075524893753,0.9751197539511256,0.26365235087933997,-0.2703086137523041,0.280405883985842,-0.25780153274536133,-0.2606081962585449,-0.9303879737854004,0.1650831401348114,0.35036319494247437,1.09184992313385,-0.6404551267623901,0.28281354904174805,-0.1130770891904831
0.13283114782239197,-0.14396198701998264,0.11650131448192651,0.9736828582575807,0.22707369013651335,-0.325200066006598,0.2755756822494612,-0.31129661202430725,-0.22512707114219666,-0.9232617020606995,-0.44659802317619324,0.01679609715938568,-0.2665191888809204,-1.5248944759368896,-4.083677768707275,0.07487891614437103
0.11486229685524615,-0.15819565141822328,0.11348855978854176,0.9741156535037145,0.18899463747410547,-0.3472709410458611,0.26520866002516064,-0.3342728018760681,-0.1878713071346283,-0.9235616326332092,-0.16335994005203247,0.03764262795448303,-0.5482174158096313,0.01895029842853546,0.22178195416927338,0.01183598954230547
0.0978550165730336,-0.18042573825818942,0.1070358600612568,0.9728383422383895,0.1523589500021767,-0.3858620464788264,0.24898760712741302,-0.3719981014728546,-0.1517699509859085,-0.9157419204711914,-0.6764981150627136,-0.42646920680999756,-2.9025843143463135,-1.3993911743164062,-1.4124621152877808,-0.605722963809967
0.0783763797384627,-0.17490035229775167,0.10491802213667176,0.9758377533961378,0.1165284042407945,-0.3685229738893511,0.2359506483764742,-0.3577948808670044,-0.11626464128494263,-0.9265340566635132,-0.7014520764350891,-0.0851927399635315,-2.2104334831237793,-1.5080101490020752,0.35283133387565613,0.021967053413391113
0.03432783823648651,-0.15793173931828766,0.10816863082510358,0.9809071462368946,0.033184413810464906,-0.32302219680115507,0.22506789349561998,-0.3172591030597687,-0.03317810967564583,-0.9477583169937134,-0.28498226404190063,-0.007280603051185608,-1.5112498998641968,-2.1569931507110596,2.042181968688965,0.7445975542068481
-0.015133385390305683,-0.11748624726270035,0.11520854324752906,0.9862530370500404,-0.05695231651176381,-0.23066609453275083,0.22597522033396264,-0.22825530171394348,0.056921739131212234,-0.9719359278678894,0.0549282468855381,-0.016782918944954872,0.047980740666389465,-2.1552443504333496,2.4688045978546143,0.713333010673523
-0.06047628093534972,-0.0712631717492378,0.12309439698639701,0.9879838417908312,-0.13747600345296504,-0.12746947243754395,0.23911789720044482,-0.12592510879039764,0.1370435655117035,-0.9825283288955688,0.10646256804466248,-0.3479539752006531,1.2876551151275635,-1.4226338863372803,2.257176637649536,0.5507056713104248
-0.08133509981525265,-0.08334045204797502,0.13109986192053144,0.9845058975189095,-0.18302168203978866,-0.14571242783065141,0.2513734427259069,-0.14277225732803345,0.18200179934501648,-0.9728779196739197,0.19494667649269104,-0.4860289692878723,0.05888420343399048,-1.2210592031478882,0.29598841071128845,0.030440613627433777
-0.09701658472933845,-0.06437127185080997,0.125701042901797,0.985212417201905,-0.20886219829529123,-0.1049168830799419,0.24279770665825137,-0.10244854539632797,0.20734713971614838,-0.9728882312774658,0.03262433409690857,-0.27298903465270996,0.9553463459014893,-0.2668417692184448,0.7318124771118164,-0.246590256690979
-0.11131697988626757,-0.05470752706074067,0.12258954402982151,0.9846763643564789,-0.23478669668678812,-0.08280980889515827,0.23794828583545483,-0.080445796251297,0.2326357215642929,-0.9692311882972717,0.09318995475769043,-0.11979008466005325,1.1072531938552856,-1.1340749263763428,0.3895983099937439,0.2117389589548111
-0.13738839906437425,-0.04895156375504737,0.1275280386254377,0.9810529321297128,-0.285936423183605,-0.06363114680248635,0.24936955206249634,-0.06100637465715408,0.28205615282058716,-0.9574562907218933,0.10874944925308228,-0.20051723718643188,1.1264570951461792,-1.2691152095794678,0.4588044285774231,0.4023067355155945
-0.16311162793606304,-0.04488823363820337,0.13362353070503805,0.97648577846713,-0.336884809637529,-0.046716349951896656,0.26404747862248956,-0.04407431185245514,0.33054879307746887,-0.9427592158317566,0.11350356042385101,-0.24104627966880798,1.0064635276794434,-1.2715104818344116,0.22279974818229675,0.44708189368247986
-0.18771884797124058,-0.04082236186012236,0.14096831396359183,0.971196755197836,-0.3856194728582903,-0.028461915611531673,0.28272773977594534,-0.026368239894509315,0.37613335251808167,-0.9261902570724487,0.09799936413764954,-0.26566532254219055,0.9978717565536499,-1.0615248680114746,0.22012147307395935,0.5719928741455078
-0.2050842469738744,-0.0758521700194198,0.15652361531236417,0.9631653167745826,-0.4321293687793705,-0.0903303302739808,0.3023630582993682,-0.08191525936126709,0.4188055396080017,-0.9043737053871155,-0.4833492934703827,-0.030523598194122314,-0.40859416127204895,-2.3255269527435303,-4.952125549316406,0.20309004187583923
-0.23214535640065354,-0.06807809317500495,0.16065596871009788,0.9569032022203233,-0.4849403342840822,-0.06299751190836407,0.31709410104627084,-0.05569717288017273,0.4661557078361511,-0.8829477429389954,0.036206215620040894,0.3467223644256592,0.4499638080596924,-0.24019750952720642,-0.5947548151016235,0.6724898219108582
-0.24735408436459333,-0.08796152686589004,0.17747671038575535,0.9484623864650743,-0.5241003753098868,-0.09144124666845822,0.3454205413739541,-0.07905716449022293,0.5004344582557678,-0.8621573448181152,-0.04841575026512146,0.48332852125167847,-0.9775655269622803,-1.7624545097351074,-1.8839865922927856,0.4393114447593689
-0.2872558826207857,-0.09032167701561072,0.18693973490359753,0.9350828033378331,-0.6077057695980326,-0.07500379745048386,0.371104896599989,-0.06151735782623291,0.5709856152534485,-0.8186520338058472,0.15098360180854797,1.3110623359680176,-0.9103660583496094,-2.5672807693481445,0.3868950605392456,1.130575180053711
-0.3379980354255679,-0.07931428334725579,0.20368279534853428,0.9154124723984616,-0.7090659573358031,-0.00991069220632605,0.43420595210689256,-0.007521739695221186,0.6511252522468567,-0.7589330673217773,0.14876452088356018,0.8327092528343201,-0.7584388852119446,-1.9658063650131226,0.8869581818580627,1.3426423072814941
-0.36374981327239264,-0.060896831566565474,0.2173073998948828,0.9037451296365329,-0.7531509789626292,0.06587100709588083,0.49800132664284763,0.048020679503679276,0.6839410066604614,-0.727955162525177,0.10171065479516983,0.399990439414978,-0.2956200838088989,-0.29378825426101685,0.8135287165641785,0.9313938617706299
-0.3584185769563858,-0.042245287100377636,0.2264673587232313,0.9046900816241239,-0.7310474748504828,0.11564410091060252,0.5348725532912163,0.08590248227119446,0.6676499247550964,-0.7395027875900269,0.026579294353723526,-0.09914399683475494,0.033220574259757996,1.225907325744629,0.47772693634033203,0.5658200979232788
-0.3300793295494151,-0.026717565119678738,0.2334887472624703,0.9142302697102798,-0.663671958300753,0.1340597485157867,0.5463525466609603,0.10528765618801117,0.6160136461257935,-0.7806674838066101,-0.05673375725746155,-0.3544323742389679,0.38727378845214844,1.840232491493225,0.021372079849243164,0.27805355191230774
-0.29830508228266595,-0.025060473379816133,0.23867029973072054,0.923808839486485,-0.5981518006337178,0.11654332752355659,0.5416226096763282,0.09609100967645645,0.5631162524223328,-0.8207719922065735,-0.02003362774848938,-0.4015164077281952,0.4188891351222992,1.3020752668380737,-0.6144368648529053,-0.05179440975189209
-0.28102869523161333,-0.03197707149010492,0.24058867422894675,0.928502894421503,-0.5671833327464261,0.09004509770880105,0.5333368408198109,0.07584309577941895,0.5372586846351624,-0.840000569820404,0.0518946498632431,-0.2259279191493988,0.24571223556995392,0.2645795941352844,-0.3902190625667572,-0.015304282307624817
