QuaternionX,QuaternionY,QuaternionZ,QuaternionW,AttitudePitch,AttitudeRoll,AttitudeYaw,GravitationalAccelerationX,GravitationalAccelerationY,GravitationalAccelerationZ,AccelerationX,AccelerationY,AccelerationZ,RotationX,RotationY,RotationZ
-0.17940672841009378,-0.029489667309657755,1.5904298831279038e-18,0.983332959863904,-0.3605972112515777,-0.0620224156166311,-0.011308827755972108,-0.057996317744255066,0.3528330624103546,-0.9338871836662292,-0.0005313436267897487,0.005321438889950514,0.0016944665694609284,0.06315111368894577,-0.012028753757476807,-0.013336194679141045
-0.17830790305655647,-0.029804670099293776,-0.00013443058476121493,0.9835232820393762,-0.3583525735337585,-0.06269629740598329,-0.011632433125833907,-0.05867510661482811,0.35073190927505493,-0.9346359372138977,-0.0021524925250560045,2.6751949917525053e-05,0.00036664993967860937,0.0680275410413742,-0.00637343805283308,-0.0059291645884513855
-0.17719235046912826,-0.029885241232606663,-0.00012746566432075818,0.9837224383082821,-0.3560861272556676,-0.0628224090226972,-0.011567546233447672,-0.0588427297770977,0.34860852360725403,-0.935419499874115,-0.00021616864250972867,-0.002841514302417636,0.001539314165711403,0.061038196086883545,0.015105687081813812,-0.006911951117217541
-0.17631971269158242,-0.029715044248787712,-0.0003490280927394923,0.9838842979705875,-0.35430183723381337,-0.06251656803470611,-0.011905211743900471,-0.05859540402889252,0.3469356298446655,-0.9360567331314087,-0.00035655766259878874,-0.002745791571214795,0.008511295542120934,0.03869399428367615,0.008278590627014637,-0.01273961178958416
-0.1758212765049983,-0.029719516073748297,-0.0006128661967663028,0.9839732469494755,-0.35327289797102657,-0.0626065327215745,-0.012424291166161675,-0.05870192125439644,0.34597042202949524,-0.9364072680473328,-0.00036278506740927696,-0.005670133046805859,0.008688107132911682,0.019319355487823486,-0.0010422817431390285,-0.016558226197957993
-0.17550527487903145,-0.029886360090016845,-0.0010202360154038617,0.9840242758954649,-0.3526030954523578,-0.0630971337683698,-0.013318037562379832,-0.05917591229081154,0.34534189105033875,-0.9366093873977661,0.0011406756239011884,0.0018559996969997883,0.009162196889519691,0.017736095935106277,-0.004868351388722658,-0.015169708989560604
-0.17520282251261882,-0.03007973494609706,-0.001181851720229412,0.9840721099673148,-0.3519759846365458,-0.06355167380199302,-0.01370689028241418,-0.059615377336740494,0.34475329518318176,-0.9367983937263489,-0.0007158498046919703,0.0010242024436593056,0.006126926280558109,0.01885407045483589,-0.00514807365834713,0.0018181970808655024
-0.17470937480859539,-0.030228167808667328,-0.0010560926801812729,0.9841554370091873,-0.3509803054493859,-0.06379741817754749,-0.013462090300358913,-0.05986744165420532,0.3438184857368469,-0.9371258020401001,-0.002336998702958226,-0.004270484670996666,0.0047991094179451466,0.03861122950911522,-0.013538898900151253,0.0039726742543280125
-0.17401672223814602,-0.030353559711253135,-0.0010733539119072589,0.9842741966708568,-0.3495714190779871,-0.06404031652392711,-0.013493478946056871,-0.06012600660324097,0.3424951434135437,-0.9375936985015869,-0.0022509729024022818,-0.005046207457780838,0.0027596913278102875,0.047514431178569794,-0.007988668978214264,-0.011791511438786983
-0.17314811937176003,-0.030705334567863944,-0.0013351073866224757,0.9844161829623446,-0.3477864617651367,-0.06484075807636783,-0.014106764326724482,-0.0609159916639328,0.3408176004886627,-0.9381538033485413,-0.0036724265664815903,-0.006710761692374945,0.007541457656770945,0.04195783659815788,-0.020712807774543762,-0.017473742365837097
-0.17211458861933754,-0.031348125884179366,-0.0016573708718574,0.9845767006694119,-0.3456583029389449,-0.0662647892199902,-0.014938662531676649,-0.06229977682232857,0.3388160765171051,-0.9387877583503723,-0.0031348555348813534,-0.0091078607365489,0.005670179612934589,0.05999263375997543,-0.03295549005270004,-0.025149710476398468
-0.17004708818638892,-0.032138551680448484,-0.0017323389183943902,0.9849102660434618,-0.34144698669886436,-0.06786306609824327,-0.015221823506035341,-0.06389632821083069,0.33485087752342224,-0.940102219581604,-0.010539015755057335,-0.02625523880124092,0.007671531289815903,0.19002768397331238,-0.043165989220142365,0.026304956525564194
-0.15875749299163944,-0.0358549191808298,-0.0007227328115711773,0.9866661098292164,-0.3185917085313847,-0.07481424791168137,-0.013489900428384898,-0.07098313421010971,0.31322941184043884,-0.947020947933197,-0.04155190289020538,-0.1329227089881897,0.049274004995822906,1.1013810634613037,-0.4892089366912842,-0.18832306563854218
-0.12571514906847742,-0.04872395284886675,-0.0027415987198804253,0.9908654406767932,-0.2515096858222346,-0.10057555220763885,-0.018259247216511634,-0.09724707156419754,0.24886640906333923,-0.9636433720588684,-0.039857834577560425,-0.07633699476718903,0.0628938153386116,2.3004367351531982,-0.9886664152145386,-0.4995616674423218
-0.07445032137678907,-0.07065423188959959,-0.00944132791803173,0.9946738542357121,-0.14730558809256133,-0.1440131964912836,-0.02962769588659171,-0.14196163415908813,0.14677342772483826,-0.9789302349090576,0.015101784840226173,0.07198533415794373,-0.04404563456773758,2.5821566581726074,-1.0290625095367432,-0.7154759168624878
-0.03319924743802761,-0.0857625660270045,-0.01759196362259243,0.9956069875138012,-0.06313126876554684,-0.17314676211133306,-0.04081649007385799,-0.1719396859407425,0.06308933347463608,-0.9830852150917053,0.04284914210438728,0.1820051372051239,-0.08425522595643997,1.3187907934188843,-0.34215641021728516,-0.4885364770889282
-0.030073146936124836,-0.08308071200975335,-0.02019840482766493,0.995884223551925,-0.05657272121057604,-0.16774507686463866,-0.045315521335132974,-0.16669239103794098,0.0565425381064415,-0.9843863844871521,0.050806090235710144,0.080378957092762,-0.08735046535730362,-1.0418516397476196,0.9218058586120605,0.3657822012901306
-0.06372111380944624,-0.06705923633902047,-0.01901960519699265,0.9955305393745162,-0.12464424800180393,-0.1374381080072701,-0.04679535886035861,-0.13594292104244232,0.12432173639535904,-0.9828853607177734,0.004750888794660568,-0.10082074999809265,0.05865674838423729,-2.3516504764556885,0.671617865562439,0.08677822351455688
-0.12277786233801732,-0.046957059945338366,-0.0222223621282362,0.9910736353951882,-0.24368131751311817,-0.10170753145061447,-0.05730190434834706,-0.09853262454271317,0.2412767857313156,-0.9654412865638733,-0.024702955037355423,-0.11925949901342392,0.02234191633760929,-3.496774196624756,1.2250564098358154,0.13846689462661743
-0.19817288728345892,-0.018001793969156254,-0.025514704693762033,0.9796696563992204,-0.3977763976353806,-0.049247645993132035,-0.06200454708103347,-0.04538426175713539,0.3873692750930786,-0.920806884765625,-0.0504353791475296,-0.16185477375984192,0.07206215709447861,-4.13984489440918,1.4367403984069824,0.1972970962524414
-0.2788189849408854,0.012130757800740664,-0.029077154177969557,0.9598268087255833,-0.5656223344612612,0.008377099824035013,-0.058135421257793155,0.007072331849485636,0.5359413027763367,-0.8442256450653076,-0.048385247588157654,-0.202155202627182,0.06362882256507874,-4.0325398445129395,1.315005898475647,0.10784059762954712
-0.34184339650502615,0.03293205151972372,-0.03733457339806588,0.9384374187283959,-0.6997889820171441,0.04744946447744888,-0.06220805173227572,0.0362841859459877,0.6440562605857849,-0.7641171813011169,-0.020716335624456406,-0.050250742584466934,-0.06593199819326401,-2.3758492469787598,0.7618871927261353,-0.38440048694610596
-0.36012189084935997,0.03637065880203828,-0.04999013635548636,0.9308547283789549,-0.739716702350261,0.042937584643187234,-0.09065481735734941,0.031706515699625015,0.674078643321991,-0.7379788160324097,-0.010148599743843079,0.2187560498714447,-0.10935428738594055,0.4276815950870514,-0.0893041267991066,-0.739206075668335
-0.3315471020600219,0.022542134779939577,-0.06315611218866062,0.9410524781456979,-0.6775085503910055,0.0007036140477654213,-0.133775553396468,0.0005482163978740573,0.6268537640571594,-0.7791367769241333,0.024337267503142357,0.1263779103755951,-0.07182701677083969,2.626896858215332,-0.5880041718482971,-0.9271786212921143
-0.26897207221546765,-0.002629299283318724,-0.08049401543839141,0.9597749510655512,-0.542036944930064,-0.056468235623517125,-0.18303741710531013,-0.04834834858775139,0.5158820152282715,-0.8552942276000977,-0.0063241347670555115,0.06124838441610336,-0.03899497538805008,3.949594020843506,-0.8148225545883179,-1.2555381059646606
-0.18673496809867,-0.0338828898642254,-0.10073004687542463,0.9766450209506632,-0.3660409783306552,-0.11139766366937227,-0.22619031691666838,-0.10380274057388306,0.3579214811325073,-0.9279640316963196,-0.005115192383527756,0.06323879212141037,-0.006032354664057493,4.510267734527588,-0.933643102645874,-1.3887050151824951
-0.10403225730364865,-0.06405507688768966,-0.12030236135951129,0.9851911582862578,-0.1907255782665156,-0.15465254541776108,-0.25784050137009706,-0.15124362707138062,0.189571350812912,-0.970148503780365,0.04938029497861862,0.13072161376476288,0.03325946256518364,3.781308889389038,-0.69807368516922,-1.1751747131347656
-0.04418423119675091,-0.0852081572881087,-0.13326855840951304,0.9864212628387722,-0.06450211147257552,-0.18124453119728173,-0.27444336025446564,-0.17987899482250214,0.06445738673210144,-0.9815746545791626,0.07354690134525299,0.21395060420036316,0.06762076914310455,2.1274735927581787,-0.5274841785430908,-0.6018441915512085
-0.023739411219094217,-0.09095609713923973,-0.13425836498348986,0.9864776704024911,-0.022415441444686712,-0.18696071925814267,-0.27263691792129385,-0.18582673370838165,0.022413557395339012,-0.982326865196228,0.06352445483207703,0.09309226274490356,0.07482334971427917,-0.0587133914232254,0.19944848120212555,0.2546062767505646
-0.043362450335757585,-0.08041788369927567,-0.12665520678136138,0.9877303689053127,-0.06533660643796999,-0.17104247470889242,-0.2606684987013953,-0.1698465198278427,0.06529012322425842,-0.9833053350448608,-0.006177231669425964,-0.10248395800590515,0.11166957020759583,-1.814953088760376,0.46308577060699463,0.6049177050590515
-0.0922265712501444,-0.06248505685663999,-0.11774211574048503,0.9867759367130355,-0.1680901036281805,-0.14764457236330208,-0.24997766808311117,-0.14503538608551025,0.16729965806007385,-0.9751797318458557,-0.01883677765727043,-0.0598287396132946,0.02383265644311905,-3.138120651245117,0.6917662024497986,0.7483065128326416
-0.1635835597772628,-0.03493255129483152,-0.10658641387023425,0.9801324236393532,-0.3185822128012917,-0.10904057866189995,-0.23417713887431538,-0.10334861278533936,0.31322041153907776,-0.9440402984619141,-0.01814303547143936,-0.040759991854429245,-0.0437142476439476,-4.1669135093688965,1.098592758178711,0.9682210683822632
-0.24728889656198877,0.003023479915228393,-0.09214076766521619,0.9645461097761912,-0.4979212824838242,-0.04524561388424693,-0.20198205743577932,-0.03973819687962532,0.47760021686553955,-0.8776781558990479,-0.0449453629553318,-0.1236259862780571,0.057285234332084656,-4.401659965515137,1.2716996669769287,1.169306755065918
-0.3155298486543898,0.03036857166471891,-0.07518539718473678,0.9454448563357647,-0.6450003160962873,0.012485808772091926,-0.15454129961755886,0.009977149777114391,0.601198673248291,-0.7990373373031616,-0.0864298939704895,-0.26335659623146057,-0.033005185425281525,-2.3139054775238037,0.21213075518608093,0.7840726971626282
-0.3210208825375048,0.02970563553766882,-0.06750954157887558,0.9441958180347281,-0.6563432780008369,0.0160969613820246,-0.13727526296708453,0.012751932255923748,0.6102239489555359,-0.7921263575553894,0.020379185676574707,0.15511883795261383,-0.14137861132621765,1.3746057748794556,-0.34032347798347473,0.09390583634376526
-0.2761259237760145,0.011840476804834535,-0.06934277573841863,0.9585436799020643,-0.559779802090942,-0.018405525189706638,-0.14972255074309296,-0.015595441684126854,0.5309996008872986,-0.8472285866737366,0.010220308788120747,-0.010587185621261597,-0.0614764429628849,3.284043788909912,-0.8973170518875122,-0.6153344511985779
-0.20381020603815864,-0.01783411347755317,-0.08374167186309868,0.9752593546619108,-0.4055766585352319,-0.07507590273994147,-0.18675557609774357,-0.0689205750823021,0.3945486843585968,-0.9162867069244385,-0.044948916882276535,-0.052921999245882034,0.013089815154671669,4.113101482391357,-1.0897014141082764,-1.3732210397720337
-0.12886989736647336,-0.052264377171464926,-0.10965113608478731,0.9841939230663028,-0.24463709696165817,-0.13557741425737804,-0.23860114860453313,-0.13113801181316376,0.2422042191028595,-0.9613219499588013,0.015933027490973473,0.13657131791114807,0.026350239291787148,3.195446491241455,-1.1317802667617798,-1.8102359771728516
-0.08913411215719569,-0.07605649036873804,-0.1329368157103252,0.9841740238401042,-0.15585575691416703,-0.17644578984057202,-0.2823374230473968,-0.1734040379524231,0.15522553026676178,-0.9725410342216492,0.11819981038570404,0.23216590285301208,-0.007099656388163567,0.8742797374725342,-0.4805710017681122,-0.9811797142028809
-0.09099292988536188,-0.07240253828361233,-0.14102830343322909,0.9831527626489963,-0.15916952735932446,-0.17101425248075727,-0.298618234353455,-0.16803064942359924,0.15849827229976654,-0.9729562997817993,0.009451285004615784,-0.05141143500804901,0.14247043430805206,-0.9204055070877075,0.510987401008606,0.0370991975069046
-0.12356874576886102,-0.05972161593219601,-0.13975340821219304,0.9806289649387883,-0.2276179775930782,-0.1563192417069564,-0.30102538485274305,-0.1516677886247635,0.22565756738185883,-0.9623281955718994,-0.007413314655423164,-0.010024022310972214,0.08206038922071457,-2.4463634490966797,0.372070848941803,0.4473649561405182
-0.18113585871698146,-0.04079599170435366,-0.1295832213258568,0.9740296907247521,-0.3493535271035391,-0.13495389557297555,-0.2883743664402033,-0.126417338848114,0.3422904312610626,-0.9310509562492371,0.00018497183918952942,0.06836391240358353,-0.055923156440258026,-3.366734266281128,0.6584652662277222,1.0524775981903076
-0.24948821266071228,-0.00845416932229147,-0.10982096997494009,0.9620933201776979,-0.4986097261483181,-0.08100586066604804,-0.24794679721481133,-0.07106546312570572,0.47820496559143066,-0.8753683567047119,-0.018505841493606567,0.06927923113107681,-0.025261495262384415,-3.6527841091156006,0.9968304634094238,1.600982666015625
-0.29793119141884206,0.017732288516074727,-0.0865874061528408,0.9504868973008365,-0.6058125022059841,-0.02175925685681022,-0.18849493885905771,-0.01788555644452572,0.5694301128387451,-0.8218451738357544,-0.09220357984304428,-0.2886054217815399,-0.062457501888275146,-1.0683619976043701,0.29351454973220825,0.9010506868362427
-0.2876230886571499,0.01658215134654022,-0.07955275485194942,0.9542900852411444,-0.5842692924212304,-0.016921790969890715,-0.17143114544997298,-0.014114047400653362,0.5515899658203125,-0.8339959979057312,0.007796864956617355,0.07586682587862015,-0.06640546768903732,1.6612836122512817,-0.3977040648460388,0.00717771053314209
-0.24140925642413774,-0.0028645359026701718,-0.0810046571629607,0.967032500015151,-0.4852585900926934,-0.05049969887507438,-0.17964371311384703,-0.044650737196207047,0.46643707156181335,-0.8834267258644104,-0.015086761675775051,-0.06637968122959137,0.007310128305107355,3.1616625785827637,-1.0352559089660645,-0.5278142094612122
-0.17382254419140408,-0.033189952785669406,-0.08879432528549823,0.9802039779278056,-0.3414661358265512,-0.10198968025879308,-0.19828107049670662,-0.09593474864959717,0.3348689079284668,-0.9373683333396912,0.011037938296794891,0.006433609873056412,0.009709001518785954,3.758141040802002,-1.1283073425292969,-0.8376160264015198
-0.10545408499797777,-0.06239517857908427,-0.09989252243741167,0.9874248603666317,-0.1970633306178277,-0.14767311299541336,-0.21626743210850707,-0.14428924024105072,0.1957903355360031,-0.969972550868988,0.06043144688010216,0.15895983576774597,0.020646698772907257,3.0212981700897217,-0.8883544206619263,-0.8215510249137878
-0.06694157117607784,-0.07855939211028307,-0.10506392704453701,0.9890950202785276,-0.11617679724643819,-0.17146073516551952,-0.22164644976051545,-0.16947168111801147,0.11591561883687973,-0.978694498538971,0.09185381233692169,0.27544736862182617,-0.0634862408041954,0.7691037058830261,-0.12641596794128418,0.05059840530157089
-0.07139570451042494,-0.06969971768841413,-0.09842417527770239,0.9901299807187282,-0.12801111061516005,-0.1539395624589897,-0.2080455588761514,-0.15207767486572266,0.12766176462173462,-0.9800891876220703,-0.03461012989282608,-0.13266967236995697,0.12382227927446365,-1.0830612182617188,0.49041634798049927,0.4570509195327759
-0.10662560479019456,-0.05690014119736105,-0.09250121536653629,0.9883506482059148,-0.20160318902188196,-0.1353462574331495,-0.2003495701917493,-0.13220056891441345,0.20024028420448303,-0.9707866907119751,-0.0333571694791317,-0.08170744776725769,0.0390239842236042,-2.4224655628204346,0.4355793595314026,0.47378432750701904
-0.161367340742743,-0.037575647863442356,-0.08601971376239521,0.9824201423410464,-0.31582056679816417,-0.1070821918045081,-0.19173975996190606,-0.10159168392419815,0.3105965256690979,-0.9450973272323608,-0.018408624455332756,-0.041235651820898056,-0.019228242337703705,-3.1074132919311523,0.8252338171005249,0.6483323574066162
-0.22393058801009486,-0.010236981907544816,-0.07678254896111351,0.9715219650105648,-0.4484118339564878,-0.060270210177118366,-0.17148662693714975,-0.054278820753097534,0.4335348904132843,-0.8995006084442139,-0.01514775212854147,-0.09574460983276367,-0.009112696163356304,-3.2153196334838867,1.0777909755706787,0.787138819694519
-0.26984479341962275,0.010180682654626235,-0.0696467424730271,0.9603278515475082,-0.5464963088398203,-0.021110038599571355,-0.15071082302532132,-0.018034029752016068,0.5196970105171204,-0.8541603088378906,-0.0911320298910141,-0.22543646395206451,0.027659956365823746,-1.1995375156402588,0.08415454626083374,0.13062737882137299
-0.2663055847032491,0.005967715499749522,-0.07185836970536254,0.9611879274277302,-0.5384397036815368,-0.031222393704525515,-0.15785779152632717,-0.02680037170648575,0.5127970576286316,-0.8580914735794067,0.004251087084412575,0.0633331760764122,-0.04729142412543297,1.361436367034912,-0.3620111644268036,-0.34076982736587524
-0.22439192706990657,-0.013971422135935043,-0.07897283708823204,0.971193372697903,-0.4485386249892685,-0.06950540336869432,-0.17813420378786604,-0.06257963180541992,0.4336491525173187,-0.8989061117172241,-0.00451637664809823,0.006530601065605879,-0.026990801095962524,2.9439857006073,-0.9660410284996033,-0.7391483783721924
-0.16024461189556127,-0.043223601049169245,-0.08942304706541018,0.9820677833534333,-0.31205156717021904,-0.11960348722167173,-0.2004470328645432,-0.11355612426996231,0.30701175332069397,-0.9449067711830139,0.014322902075946331,0.027810214087367058,-0.01418244931846857,3.5758628845214844,-1.0649454593658447,-0.9395486116409302
-0.09427763475401134,-0.07019862881971783,-0.10177240273708951,0.9878392419806754,-0.1728328986874013,-0.16096152917032935,-0.21930055444104485,-0.15787963569164276,0.17197370529174805,-0.9723677635192871,0.056350670754909515,0.14858023822307587,0.0052501303143799305,2.941138505935669,-0.7641385197639465,-0.9058483242988586
-0.05719510757671609,-0.0833068084089751,-0.10840117221065351,0.9889580302977625,-0.09520978991376551,-0.17893327783133683,-0.22689863610082112,-0.1771738976240158,0.09506599605083466,-0.9795774221420288,0.072545625269413,0.2824598550796509,-0.029090696945786476,0.7207968831062317,-0.017846032977104187,-0.043238475918769836
-0.06164732424908911,-0.07452382354351746,-0.10391901199086769,0.9898720585623075,-0.10675972924182492,-0.16197627737385797,-0.21787165430407818,-0.1603507399559021,0.10655703395605087,-0.9812915921211243,-0.03135112300515175,-0.0908355787396431,0.09308367967605591,-1.0795599222183228,0.5529406070709229,0.3585972785949707
-0.09548735694415421,-0.059335218447412665,-0.09875266748306316,0.9887413894792547,-0.17804475987057702,-0.13882668549572352,-0.2115052634550296,-0.13619361817836761,0.17710556089878082,-0.9747229814529419,-0.0243009552359581,-0.07667700946331024,0.06321174651384354,-2.269881010055542,0.5768100023269653,0.4957093596458435
-0.14671223852724768,-0.03947667578487006,-0.09237245107104823,0.9840652894552875,-0.2853108289591165,-0.10943296957470391,-0.20292129097497233,-0.10479957610368729,0.2814556956291199,-0.9538342356681824,-0.020078564062714577,0.013629438355565071,-0.0018225130625069141,-2.982408046722412,0.7841272354125977,0.6308958530426025
-0.20660247309762103,-0.01391990617120535,-0.08104313225186872,0.9749635177484548,-0.41217543758065567,-0.0662204184595318,-0.17971585247420657,-0.06063021719455719,0.4006035029888153,-0.9142433404922485,-0.01186726987361908,-0.13179737329483032,0.025781819596886635,-2.974623203277588,0.8681514859199524,0.9097646474838257
-0.2485990579946488,0.0016985951850066207,-0.07173060246954398,0.9659453434690934,-0.5012360265306375,-0.036933384249409174,-0.15770283891538595,-0.03238281235098839,0.48050984740257263,-0.8763912320137024,-0.06315363943576813,-0.21914692223072052,0.030188776552677155,-1.1482799053192139,-0.07124742865562439,0.16197116672992706
-0.24964415915998683,-0.003442531062234882,-0.07147378965930655,0.9656901717076567,-0.5025544586756798,-0.04832670140738023,-0.16016479799802977,-0.04233485832810402,0.4816656708717346,-0.8753318786621094,0.009192650206387043,0.04987810179591179,-0.048511844128370285,0.9187952876091003,-0.3855888843536377,-0.1961580365896225
-0.21933542571357068,-0.019237177968403962,-0.07406578826480802,0.972643942886961,-0.43765970310838465,-0.07726444184570708,-0.16919555486581325,-0.06991234421730042,0.4238208830356598,-0.903043806552887,-0.0034340834245085716,0.01434390153735876,-0.005600768141448498,2.1741249561309814,-0.8355034589767456,-0.4303431808948517
-0.17229312221709328,-0.04192863453256805,-0.07932140438154046,0.9809512426535923,-0.33775591046654824,-0.11641847098464686,-0.1812437265973162,-0.10959294438362122,0.33137059211730957,-0.9371141195297241,0.017176980152726173,0.03710952028632164,-0.005908666178584099,2.5981814861297607,-0.8449726104736328,-0.5828090310096741
-0.12344783206205043,-0.0628131935137129,-0.08670004473547781,0.9865588437825423,-0.23483784825852744,-0.15000761243409647,-0.19304008831408426,-0.14534367620944977,0.23268526792526245,-0.9616302847862244,0.02424105629324913,0.05072249099612236,-0.007047615479677916,2.303614616394043,-0.6349798440933228,-0.6367632150650024
-0.08824608878145225,-0.07595533129459231,-0.09306314149390703,0.9888290360107224,-0.16107897407647653,-0.16963647102597781,-0.20140096850716244,-0.1666385680437088,0.16038328409194946,-0.972886860370636,0.05266473442316055,0.16817565262317657,0.005590807180851698,1.147844910621643,-0.2367417961359024,-0.27210506796836853
-0.08225221509894265,-0.07635385248316362,-0.09234484208282391,0.9893822139314394,-0.14920902079965978,-0.1689482777019745,-0.19879017824064818,-0.16627740859985352,0.148655965924263,-0.9748093485832214,0.042720116674900055,0.06608894467353821,-0.02193303406238556,-0.5088770389556885,0.3373204469680786,0.2860527038574219
-0.10497732175972531,-0.06419624413800129,-0.08682723308158234,0.9885947712150938,-0.19769739332189182,-0.14858771801174345,-0.18997092249270392,-0.14515790343284607,0.1964120864868164,-0.9697172045707703,-0.0036277836188673973,-0.018395230174064636,0.013858182355761528,-1.746379017829895,0.6110119819641113,0.49730032682418823
-0.14653146680702256,-0.045765511639321785,-0.0802835448366008,0.9848800516143803,-0.2851312476111246,-0.11873678447405442,-0.17973551586968523,-0.11367519944906235,0.2812833786010742,-0.9528681039810181,-0.03171255812048912,-0.05832112580537796,0.010557951405644417,-2.4206111431121826,0.7356715202331543,0.572018027305603
-0.19585870631582836,-0.024789323198434392,-0.0727397594586125,0.9776164610618943,-0.3890861754150656,-0.08327570689668096,-0.16495410115758974,-0.07696232199668884,0.37934303283691406,-0.9220497012138367,-0.026793569326400757,-0.11574992537498474,-0.0005917504895478487,-2.557311534881592,0.7591385841369629,0.6209221482276917
-0.23566905982016878,-0.007069405862100871,-0.0669132849103149,0.969501341473242,-0.4735144620452518,-0.050862202921755535,-0.15009260845766803,-0.045246370136737823,0.4560168385505676,-0.888820230960846,-0.07466506958007812,-0.2101389765739441,0.006169207394123077,-1.2752612829208374,0.37642383575439453,0.2369813621044159
-0.2380102131475491,-0.0069382546053117005,-0.06787473927005197,0.9688633512259577,-0.4782845270604902,-0.05156027725384683,-0.1524569981800472,-0.045754194259643555,0.4602568447589874,-0.8866060376167297,-0.018224410712718964,0.011172349564731121,-0.05318325012922287,0.9732858538627625,-0.24100783467292786,-0.23014824092388153
-0.20260390170010872,-0.02179773968494804,-0.07305466708140797,0.9762887606749799,-0.4032556994678867,-0.07853800495673974,-0.16544104263780265,-0.07216408848762512,0.392414927482605,-0.9169530272483826,-0.00868901051580906,0.019762983545660973,-0.018638934940099716,2.587045669555664,-0.7986851930618286,-0.5943381190299988
-0.14477197833415278,-0.045953368586813675,-0.08177157158748054,0.9850090831663623,-0.2813866905794336,-0.11916267821624375,-0.18254878969099073,-0.11420542001724243,0.27768805623054504,-0.9538587331771851,0.01940874569118023,0.04946013540029526,-0.011915124952793121,3.23626971244812,-0.9036267399787903,-0.7860987186431885
-0.08429179836449996,-0.06884518440360576,-0.09229411852948886,0.989766210697766,-0.15476745350577048,-0.1542888058432884,-0.19794606139914842,-0.15184053778648376,0.1541503220796585,-0.9763104915618896,0.042573776096105576,0.13085892796516418,0.0245029516518116,2.7307584285736084,-0.6910122632980347,-0.8041212558746338
-0.048473556362331346,-0.08232774939379389,-0.09810674395009078,0.9905794714858385,-0.07996519960266592,-0.17404626000830006,-0.20441580601674353,-0.17261551320552826,0.079879991710186,-0.9817448854446411,0.07406143844127655,0.2219633013010025,-0.020979877561330795,0.8504104614257812,-0.13093319535255432,-0.07518759369850159
-0.04936834275614292,-0.0781772011552102,-0.09415544729181426,0.9912547248521564,-0.08324770764336009,-0.1656105343823625,-0.19631712255001252,-0.1642836183309555,0.08315157890319824,-0.9829021692276001,0.002589832991361618,-0.07144197821617126,0.06983674317598343,-0.7709008455276489,0.38453957438468933,0.36739814281463623
-0.07550261328182967,-0.06825324586381648,-0.08915721591471854,0.9908036864779305,-0.13788247516714974,-0.15070914104847677,-0.18991231353976368,-0.1487143337726593,0.13744598627090454,-0.9792817234992981,-0.019556645303964615,-0.05216723307967186,0.03725485876202583,-1.8394672870635986,0.38253313302993774,0.4044535458087921
-0.11836758674453313,-0.0541387321530942,-0.08342269819578974,0.9879771538691124,-0.22679539769512122,-0.1304246573067483,-0.18335053406827576,-0.1267247349023819,0.22485612332820892,-0.9661162495613098,-0.015188501216471195,-0.048859428614377975,-0.004969697445631027,-2.4487245082855225,0.5651715397834778,0.5234553217887878
-0.16910192167974636,-0.03529119488550117,-0.07607218808265656,0.9820244854049954,-0.3328681661028894,-0.10073172151854659,-0.1715561671250674,-0.09504152834415436,0.3267550766468048,-0.9403181672096252,-0.012088675051927567,-0.08957397937774658,-0.020215541124343872,-2.5608644485473633,0.8015961050987244,0.6541907787322998
-0.2042191489206173,-0.022818292973610352,-0.07010820341495813,0.9761449072036903,-0.4066072360160312,-0.07976375825706211,-0.15984861282605214,-0.07318278402090073,0.3954954445362091,-0.9155477285385132,-0.08356151729822159,-0.22884228825569153,0.025533784180879593,-0.7472527027130127,-0.17780247330665588,0.04265621304512024
-0.19689233540144774,-0.029241384313838544,-0.07129405735903899,0.977392293055458,-0.3905668389587982,-0.09230765193431847,-0.1638996961077353,-0.0852351039648056,0.3807125985622406,-0.9207566976547241,-0.020665593445301056,-0.017172863706946373,-0.04203708469867706,1.4323866367340088,-0.4070616364479065,-0.2851022183895111
-0.15453892972327946,-0.04761466851588642,-0.07674865111011872,0.9838497753665258,-0.3013162997078309,-0.12326397845021027,-0.17443741263092388,-0.11741265654563904,0.2967774271965027,-0.9477011561393738,0.0007415181025862694,0.026629073545336723,-0.028802312910556793,2.73647403717041,-0.8263671398162842,-0.6046278476715088
-0.09544440493452444,-0.07180075971515457,-0.08473985367199621,0.9892189992722451,-0.17759413830400889,-0.16145829772060144,-0.1853154333199548,-0.15822923183441162,0.17666204273700714,-0.971470057964325,0.017405077815055847,0.06187714636325836,-0.01157880388200283,3.1625053882598877,-0.8951513767242432,-0.7671825289726257
-0.03771312523203468,-0.09374768225003101,-0.093703765398998,0.9904588958084988,-0.05716871440133768,-0.19431005775620241,-0.1942246306961029,-0.19277416169643402,0.057137567549943924,-0.9795781970024109,0.04626745358109474,0.14609967172145844,-0.01995081454515457,2.5090975761413574,-0.6226595640182495,-0.6954430937767029
-0.0037596751640610257,-0.10456953586341737,-0.09801271428518563,0.9896690197754081,0.013056991014838351,-0.2092569931014796,-0.19605679547404176,-0.20771543681621552,-0.013056625612080097,-0.9781021475791931,0.059766534715890884,0.18953000009059906,-0.04010935500264168,0.8326587677001953,-0.03544898331165314,-0.08232748508453369
-0.002500020526656946,-0.09940012125125226,-0.09468245724589328,0.9905295538696391,0.013870651797034575,-0.19871514217877476,-0.18921365389203462,-0.19739091396331787,-0.01387021318078041,-0.9802267551422119,-0.00412275455892086,-0.04351699724793434,0.06220526993274689,-0.5841222405433655,0.3885161280632019,0.26714664697647095
-0.02446906726232166,-0.08807738481587667,-0.09091089738492472,0.9916547186402574,-0.032521076025987146,-0.1802021838198069,-0.18577927179686812,-0.17913369834423065,0.03251533582806587,-0.9832872748374939,-0.023033922538161278,-0.03253313899040222,0.054423972964286804,-1.6255148649215698,0.5105515122413635,0.3610437512397766
-0.06554064535932409,-0.07225899943768069,-0.08557014109164111,0.9915447130610525,-0.11787934515443384,-0.15622720098140822,-0.1814104833966723,-0.1545126885175705,0.117606520652771,-0.9809661507606506,-0.002988638123497367,-0.032039824873209,-0.02301081269979477,-2.4896864891052246,0.7582935094833374,0.5446006059646606
-0.11781569115231613,-0.05033530777114699,-0.0787840083586458,0.9886248145733707,-0.22696335422708241,-0.12149635309542159,-0.17290885534065442,-0.11808944493532181,0.22501978278160095,-0.9671716690063477,-0.03457856550812721,-0.08954653888940811,0.0064149945974349976,-2.7654805183410645,0.8966202735900879,0.6112864017486572
-0.1677965200834184,-0.030018618074353895,-0.07283393747755856,0.9826691528331712,-0.3314391404620328,-0.08835678365036623,-0.1627537534157346,-0.08343929052352905,0.32540416717529297,-0.9418864250183105,-0.021092401817440987,-0.11603157222270966,0.03810076788067818,-2.296190023422241,0.6118769645690918,0.41672974824905396
-0.20058356685948386,-0.019179438273172325,-0.06942506363541723,0.9770254492433059,-0.39985787393164757,-0.07098293868510097,-0.1562662152930987,-0.06532864272594452,0.38928741216659546,-0.9187967777252197,-0.03514144569635391,-0.1246073842048645,-0.01253867894411087,-0.8981680870056152,0.07298336923122406,0.06435219943523407
-0.2032699691087065,-0.02011094968576819,-0.07024268455221057,0.9763927910664412,-0.40510729235833653,-0.07386954782555395,-0.15881177548230407,-0.06782881915569305,0.3941173255443573,-0.9165537357330322,0.009700767695903778,0.05849836766719818,-0.04615780711174011,0.4730921685695648,-0.055420681834220886,-0.06932271271944046
-0.18326417324411914,-0.02806402686890264,-0.07217442417290962,0.9800089784253124,-0.3630745875736679,-0.08725139597017426,-0.1630535034131093,-0.08145996183156967,0.355150043964386,-0.9312533140182495,0.004698088392615318,0.08442652970552444,-0.04360521584749222,1.47380530834198,-0.41545116901397705,-0.23901337385177612
-0.14903840805837837,-0.03999771035707503,-0.07412081606326373,0.9852380052291788,-0.291873802537636,-0.1055604045348277,-0.16570944735711657,-0.10090821236371994,0.28774726390838623,-0.9523754715919495,-0.0014259982854127884,0.02105017378926277,0.00829983875155449,2.0343141555786133,-0.5263854265213013,-0.29569149017333984
-0.10550381396869138,-0.05540465638942385,-0.07726639933103727,0.989863250689234,-0.2016711183805104,-0.1289531911549061,-0.1688646388832652,-0.1259898543357849,0.20030684769153595,-0.9715985655784607,-0.011065416038036346,-0.017887944355607033,0.027380123734474182,2.4131410121917725,-0.7042945027351379,-0.43088820576667786
-0.05752700283092632,-0.07300669838061363,-0.08179044046528372,0.9923060070056916,-0.10240517117200433,-0.1557417333381978,-0.17247494515181133,-0.1543002724647522,0.10222626477479935,-0.9827213287353516,-0.0023846090771257877,-0.018103569746017456,0.013332064263522625,2.442276954650879,-0.6328709125518799,-0.47833678126335144
-0.012902635813579977,-0.08802425406545061,-0.0863939880852625,0.992280925313549,-0.010396733393994911,-0.17786489644628659,-0.17462118101061067,-0.17691898345947266,0.010396539233624935,-0.9841704964637756,0.020463397726416588,0.05209185555577278,-0.0007135103223845363,1.9755183458328247,-0.42694878578186035,-0.33599376678466797
0.018382724950952722,-0.09683277491652369,-0.0877979363518249,0.9912502751733352,0.053472676953443585,-0.1901571957869795,-0.17158410287419615,-0.18874308466911316,-0.05344720184803009,-0.9805709719657898,0.01766134425997734,0.07574891299009323,-0.00328332232311368,1.1161341667175293,-0.16272807121276855,-0.06310823559761047
0.029562232313279264,-0.09804102924544954,-0.0845419519875737,0.9911442245970238,0.07524902673419295,-0.19104445415365348,-0.1629694836454127,-0.18934708833694458,-0.07517803460359573,-0.979028046131134,0.011251372285187244,0.0157909095287323,-0.0027259790804237127,0.009454309940338135,0.16094598174095154,0.2674504816532135
0.019172286457126403,-0.09089062793095973,-0.0781291133790636,0.9926062877409998,0.05228729450698687,-0.17863272881718978,-0.1524146501967251,-0.17744137346744537,-0.05226347595453262,-0.9827426075935364,-0.0064820945262908936,-0.05972787365317345,0.031329743564128876,-1.0051424503326416,0.44385820627212524,0.43409040570259094
-0.010097831125606346,-0.07779544409872391,-0.0710382206787578,0.9943839669030851,-0.009029465588988964,-0.1567998434608723,-0.1433458983422816,-0.15615172684192657,0.009029335342347622,-0.9876918196678162,-0.017309565097093582,-0.08232174068689346,0.024035442620515823,-1.918243408203125,0.6554787158966064,0.5255107879638672
-0.054693512248757625,-0.05980005916417202,-0.06402928684033153,0.9946521449601209,-0.10131738003988322,-0.12695454625051764,-0.1350151981963499,-0.1259644776582718,0.10114411264657974,-0.9868651628494263,-0.024706972762942314,-0.1126222088932991,0.029637189581990242,-2.5613112449645996,0.7832435965538025,0.5124491453170776
-0.11006119623926913,-0.03938110735495435,-0.058623137536017805,0.9914126932141096,-0.21527372771253228,-0.09327517955644443,-0.12821032605409954,-0.0909901112318039,0.213614821434021,-0.9726713299751282,-0.030394889414310455,-0.05497071519494057,0.03365543857216835,-3.0016512870788574,0.7810429334640503,0.4713309705257416
-0.16942631972841538,-0.018468731487177786,-0.05281426534049784,0.9839534534931613,-0.33785529900889566,-0.057522816981572134,-0.11706156120234693,-0.05424099043011665,0.33146438002586365,-0.9419072866439819,0.011256733909249306,-0.0711120069026947,0.02705569937825203,-2.9999265670776367,0.868327796459198,0.4802894592285156
-0.2212240662174928,-0.0008013287749594302,-0.048284127997906,0.9740267346810652,-0.44546652820965627,-0.02540610795799151,-0.10481681048398442,-0.02292424812912941,0.4308789074420929,-0.9021185636520386,-0.02481948211789131,-0.0753115639090538,0.021052241325378418,-2.1224923133850098,0.35350579023361206,0.23801830410957336
-0.24962638230330125,0.007022071372322614,-0.046338018283830294,0.9672074727163438,-0.5046850526419416,-0.01091132267243053,-0.09855834972183644,-0.00955077912658453,0.48353174328804016,-0.8752747178077698,0.011794879101216793,0.0644289180636406,-0.03429661691188812,-0.9142653942108154,0.2397836446762085,0.08252954483032227
-0.25928850027131084,0.01028222481694961,-0.046022486170937564,0.9646479994303907,-0.5249742162637805,-0.004655715360357799,-0.09659683813040643,-0.004028743132948875,0.5011906623840332,-0.8653275370597839,0.0039011575281620026,0.08927230536937714,-0.017424745485186577,-0.06570415198802948,-0.03692125156521797,0.0019196206703782082
-0.2527354692696687,0.007624508106898062,-0.04662663088376115,0.966381231896594,-0.5111592394725155,-0.010126596365786111,-0.09906865653953917,-0.008832038380205631,0.48918861150741577,-0.8721333146095276,0.021273180842399597,0.07885533571243286,-0.00571540417149663,0.7275583744049072,-0.18333405256271362,-0.137128084897995
-0.23213197298684624,0.00012746966997236321,-0.049432435910427515,0.9714274155184279,-0.46789813190515683,-0.02543868636900891,-0.10774775451304043,-0.022702036425471306,0.4510113000869751,-0.8922294974327087,0.016259625554084778,0.0507025346159935,0.008522415533661842,1.390986680984497,-0.35433387756347656,-0.26668888330459595
-0.2005760281515757,-0.011565637927297506,-0.05314518248434931,0.9781672321398931,-0.40189655170032484,-0.04776842257392262,-0.11828812858901341,-0.0439455471932888,0.3911644518375397,-0.9192709922790527,0.003896671812981367,0.031842928379774094,0.04136122018098831,1.8843011856079102,-0.5617822408676147,-0.3362528383731842
-0.16097340505126478,-0.02670349033737822,-0.05651509977291198,0.9849774385500992,-0.31950014737499943,-0.07464279618287285,-0.12666053835693292,-0.07079951465129852,0.3140920102596283,-0.9467489719390869,0.0018210108391940594,0.002652064198628068,0.05471494793891907,2.1894314289093018,-0.6438736319541931,-0.3024449646472931
-0.11543238339760382,-0.04558463341480212,-0.05998048802546511,0.9904543408350086,-0.22508850283595463,-0.1070458426030199,-0.13307932690765023,-0.10414636880159378,0.22319261729717255,-0.9691948294639587,0.01041434146463871,0.009606431238353252,0.013619696721434593,2.402191400527954,-0.7820862531661987,-0.3802502751350403
-0.0676355411896518,-0.06420786933113934,-0.06389548651234053,0.9935895789447444,-0.1265361515682204,-0.13776914145396904,-0.13718042029479088,-0.13623574376106262,0.12619873881340027,-0.9826055765151978,-0.004584711045026779,-0.03190990537405014,0.02223166823387146,2.4373233318328857,-0.7570512890815735,-0.48275014758110046
-0.023327546085658533,-0.08028402562750478,-0.06864479530099461,0.9941319505717852,-0.03536652900459379,-0.16365996038186237,-0.14078195033781787,-0.1628284454345703,0.03535914793610573,-0.9860206246376038,0.017925018444657326,0.01855216920375824,-0.005365242715924978,2.028167247772217,-0.5054806470870972,-0.33850616216659546
0.013130273398835796,-0.09098211725961527,-0.07116812695248084,0.9932195729001196,0.039042460888315214,-0.17996783908437564,-0.13954030871431178,-0.17886151373386383,-0.039032548666000366,-0.9830996990203857,0.011804657988250256,-0.0033507193438708782,0.009721988812088966,1.6042845249176025,-0.3179084062576294,-0.2500360608100891
0.03893942041239244,-0.09795581408194493,-0.07201954248962297,0.9918173735076417,0.09147858700947425,-0.19064481927638344,-0.1362204876895439,-0.18869973719120026,-0.09135105460882187,-0.9777767658233643,0.009585347026586533,-0.009852648712694645,0.015374825336039066,1.011818766593933,-0.18611043691635132,-0.06516127288341522
0.05326201572117267,-0.10173168517009039,-0.0703137894829788,0.990893492556502,0.12014911654061905,-0.19679789444550985,-0.12980750469665464,-0.1941204071044922,-0.11986024677753448,-0.9736276268959045,-0.004636339843273163,-0.03910569101572037,0.03805989772081375,0.4550946056842804,-0.10224413871765137,0.0833381712436676
0.05607772200559765,-0.10277604366571423,-0.06756072071321927,0.9908218688467354,0.12534125022920947,-0.19894848151133523,-0.12363658234543912,-0.19608817994594574,-0.1250133067369461,-0.9725847244262695,-0.0014333822764456272,-0.023590663447976112,0.008912593126296997,-0.17302557826042175,0.047295793890953064,0.17204786837100983
0.04461862042572978,-0.09819840574606095,-0.06410176302861838,0.9920974621108788,0.10129455680340185,-0.1912629261460155,-0.11932054783508378,-0.18912449479103088,-0.10112142562866211,-0.9767324924468994,-0.002567072631791234,-0.006566409952938557,-0.022394558414816856,-0.9936057925224304,0.3656124472618103,0.28383728861808777
0.016606850285038714,-0.08602034332614737,-0.06031210272954322,0.9943275288677763,0.04341506970875398,-0.17003927438328872,-0.11746327648435864,-0.1690615862607956,-0.043401435017585754,-0.9846494197845459,-0.0056662471033632755,-0.023767294362187386,-0.021126508712768555,-1.830670952796936,0.714120626449585,0.3226568400859833
-0.026539032681196405,-0.06712033154408749,-0.05711225436439293,0.9957554453771553,-0.045201376453427186,-0.13727276829409965,-0.11769375376785714,-0.1367022693157196,0.04518597573041916,-0.9895811080932617,-0.0234195739030838,-0.03406623750925064,0.023660240694880486,-2.5074636936187744,0.8671714067459106,0.3490578234195709
-0.08112227777226656,-0.04559914972395811,-0.05432136544467506,0.9941776575830322,-0.15698996028675927,-0.10089033712173892,-0.11711283524844589,-0.09948064386844635,0.15634587407112122,-0.9826797842979431,-0.02293158695101738,-0.027824722230434418,-0.0025418910663574934,-3.0052006244659424,0.9513907432556152,0.3652363419532776
-0.14143930186210973,-0.02048837889325287,-0.050558921042761044,0.9884427284888828,-0.28123002168053507,-0.057077276848776205,-0.11029247501580304,-0.0548052079975605,0.2775375247001648,-0.9591503143310547,-0.041096702218055725,-0.131376713514328,0.08564721047878265,-2.9679157733917236,0.9736580848693848,0.4004251956939697
-0.1930214895536161,-0.0017138826742538358,-0.04785716299935798,0.9800252906126137,-0.3878163575992168,-0.023587954232045773,-0.1022199557690435,-0.02183421328663826,0.3781678080558777,-0.925479531288147,0.009051921777427197,-0.055930860340595245,-0.007804168853908777,-2.333425998687744,0.7217713594436646,0.22652623057365417
-0.2310928335506831,0.014092369676205344,-0.047354498091950706,0.9716764661537591,-0.4672464681222945,0.006160213689589016,-0.0959266950055099,0.0054998816922307014,0.4504295885562897,-0.8927950263023376,0.006217556074261665,0.027097363024950027,0.0007106678676791489,-1.6658681631088257,0.5846673250198364,0.12913838028907776
-0.25406182306324004,0.02200722864494133,-0.046832878663022,0.9658027922497192,-0.5153145324550348,0.021506749715090128,-0.09123883727570035,0.018712395802140236,0.4928085207939148,-0.8699365258216858,-0.001323498785495758,0.019485831260681152,-0.001388478558510542,-0.645451545715332,0.07750646770000458,0.007824830710887909
-0.25478459930187997,0.01880050881588359,-0.04840170098641891,0.9656027701043606,-0.5165248973552602,0.013390953809620038,-0.09663052905631299,0.011643634177744389,0.4938613474369049,-0.8694627285003662,0.021208932623267174,0.07208362966775894,-0.03681109845638275,0.5867226123809814,-0.3159283697605133,-0.22076267004013062
-0.2336939129015541,0.009063515803497318,-0.05197218516317508,0.9708779959557208,-0.4720562984503874,-0.007513843826380377,-0.10876733968292884,-0.0066920253448188305,0.45471861958503723,-0.8906100392341614,-0.0017474000342190266,0.02628878504037857,0.00863180123269558,1.6391798257827759,-0.5517411231994629,-0.3298364281654358
-0.19203489329427526,-0.009381994313552246,-0.057072436293808766,0.9796822257000029,-0.38460760503339264,-0.04349257175762186,-0.12485031600812072,-0.04030253738164902,0.3751954138278961,-0.9260691404342651,0.0006065976340323687,0.013693224638700485,-3.900215961039066e-05,2.692254066467285,-0.861249566078186,-0.48193129897117615
-0.1306452858549651,-0.0348909687041886,-0.06383787893111455,0.9887564144291654,-0.25670819553706714,-0.08869651160707395,-0.14040353200170627,-0.08567756414413452,0.2538979649543762,-0.9634288549423218,-0.00021343398839235306,-0.009357299655675888,0.01243497896939516,3.557180881500244,-1.0668306350708008,-0.6693347692489624
-0.05948599224412079,-0.06314954648551152,-0.07244935827819265,0.9935918874650801,-0.10927666644789608,-0.1353265940621265,-0.15298829230488617,-0.13410918414592743,0.10905929654836655,-0.9849470853805542,0.03733765706419945,0.10321301221847534,-0.006820645183324814,3.4659297466278076,-1.0201892852783203,-0.6778311133384705
0.0008013685451720917,-0.08371865808505348,-0.07773213319060449,0.9934528116795688,0.014608022969745721,-0.1670095187795052,-0.15494797650352116,-0.16621647775173187,-0.014607509598135948,-0.9859811067581177,0.04480839893221855,0.09485574066638947,0.01163716334849596,2.5804057121276855,-0.5548580288887024,-0.38060224056243896
0.03832594421948043,-0.09448748810378285,-0.07783814464304983,0.9917381782353485,0.09085300165953149,-0.18322211753423082,-0.14829985977627066,-0.18144723773002625,-0.09072806686162949,-0.9792065024375916,0.023385215550661087,0.07760299742221832,0.027583491057157516,1.1939349174499512,-0.2418290078639984,0.07687827944755554
0.04939690254218622,-0.09749712363028733,-0.07375917108669407,0.9912688888806789,0.11255131855799956,-0.18829995064995256,-0.13790471064646437,-0.18600475788116455,-0.11231383681297302,-0.9761084914207458,-0.006146427243947983,-0.07531674951314926,0.016230421140789986,0.00836149975657463,0.08924705535173416,0.21424534916877747
0.04108616905432026,-0.09344595254027677,-0.06989398648045414,0.9923178988935246,0.09474538855317798,-0.1815176230984152,-0.13200884599857135,-0.17971281707286835,-0.09460370242595673,-0.9791595339775085,-0.029608307406306267,-0.12997488677501678,0.02293740026652813,-0.8264691829681396,0.334153413772583,0.20091189444065094
0.016088927915565994,-0.0839950110235238,-0.0670674931473957,0.9940764506665346,0.043267417037968756,-0.16574913976883857,-0.13113555160058224,-0.1648368239402771,-0.04325392097234726,-0.9853719472885132,-0.00942196510732174,-0.03621811419725418,-0.0006499661249108613,-1.7466108798980713,0.511946439743042,0.33670035004615784
-0.027547354548298614,-0.06684818028167287,-0.0622827891355543,0.9954362606343813,-0.04653308037962394,-0.1370946376993595,-0.12816905783903898,-0.13651764392852783,0.04651628062129021,-0.9895449280738831,-0.009639417752623558,-0.038938116282224655,0.01908028870820999,-2.655428647994995,0.8467702865600586,0.4702872335910797
-0.0859884167218551,-0.04516734971430224,-0.057453285079440065,0.9936122016097706,-0.16645587158386815,-0.10120746652757237,-0.12396663711908351,-0.09963828325271606,0.16568823158740997,-0.9811317920684814,-0.00707053579390049,-0.048570651561021805,0.027061108499765396,-3.208089828491211,0.9091018438339233,0.4569351077079773
-0.14935254466283354,-0.023344910775582067,-0.05312233995724048,0.9870800415832237,-0.2966995467526388,-0.06483059097642113,-0.11722370690266463,-0.06195449456572533,0.29236552119255066,-0.954297661781311,-0.0009095501154661179,-0.03171492740511894,0.025585878640413284,-3.2380828857421875,0.8255831599235535,0.401395320892334
-0.21020104015807178,-0.0017580715643273988,-0.04957253473651759,0.9763990185611695,-0.4227894447263565,-0.026620403125840877,-0.10716752846481227,-0.024273550137877464,0.41030582785606384,-0.9116248488426208,-0.03665056824684143,-0.11557003855705261,0.055973783135414124,-2.859290361404419,0.7650821208953857,0.3094519078731537
-0.25853398528493,0.010773513948647727,-0.049113403592795916,0.9646927115608146,-0.5234486138418984,-0.005321240435837646,-0.10315942821032052,-0.004608702380210161,0.4998699128627777,-0.8660882115364075,0.022568639367818832,0.02842734567821026,-0.036047548055648804,-2.1754677295684814,0.369372695684433,0.04550588130950928
-0.28920171698652264,0.019334809385014855,-0.04986304642197143,0.9557731833684204,-0.5880632743406065,0.009757684488204488,-0.1012915315757667,0.008118431083858013,0.5547506213188171,-0.8319770693778992,-0.00042587704956531525,0.029274649918079376,-0.022843528538942337,-0.9974841475486755,0.24211952090263367,-0.00042954087257385254
-0.29611205952575165,0.020037701737663952,-0.0507073295255669,0.9535958273995764,-0.6025855928731986,0.009935717308538674,-0.10316209574561683,0.00818563811480999,0.5667745471000671,-0.8238322734832764,0.019932519644498825,0.12147997319698334,-0.050509728491306305,0.2394632250070572,-0.08892107009887695,-0.05988847464323044
-0.28273941872865826,0.016058415717216046,-0.05157468762425222,0.9576746836876606,-0.5742451629186334,0.001897424954967654,-0.10704396106200252,0.001593086519278586,0.5432011485099792,-0.8396010994911194,0.004104111343622208,0.07030922919511795,0.003357709152624011,1.1492050886154175,-0.2992163300514221,-0.1295088678598404
-0.2541491328906579,0.006537481120249423,-0.053346730789736264,0.9656705879623821,-0.513864359141451,-0.016639590895218197,-0.11474618308410438,-0.014489938504993916,0.4915461540222168,-0.870730996131897,0.018936708569526672,0.05850742757320404,0.0028609074652194977,1.8166494369506836,-0.3731275498867035,-0.19575849175453186
-0.21385500491855164,-0.006902873039427161,-0.0563984138010944,0.9752115937967204,-0.429404168674232,-0.04135044539472765,-0.1245534994234719,-0.03758568316698074,0.41632911562919617,-0.9084367752075195,0.010403569787740707,0.029396817088127136,0.017314579337835312,2.3553590774536133,-0.5999197959899902,-0.3355454206466675
-0.16532923993935855,-0.0229389413286117,-0.059566487785447396,0.9841707069507352,-0.32857184740557294,-0.0685667059491032,-0.13227294943753898,-0.06484782695770264,0.32269158959388733,-0.9442800879478455,-0.0036111436784267426,-0.02545660361647606,0.05348683148622513,2.6549601554870605,-0.6832809448242188,-0.34450894594192505
-0.11321102024787363,-0.04088528226546134,-0.06284637803577128,0.9907381879673113,-0.2209800826822113,-0.09777246370162267,-0.13755364754246677,-0.09524301439523697,0.2191859632730484,-0.9710233211517334,0.004917577840387821,-0.015469277277588844,0.02479623258113861,2.6295342445373535,-0.65657639503479,-0.3136530816555023
-0.06182480542269919,-0.056744971279432024,-0.06597843547286379,0.9942860009083816,-0.11571324018757599,-0.12211756959937958,-0.1396029126962109,-0.12099965661764145,0.11545517295598984,-0.9859154224395752,0.0007409253157675266,0.0044004051014781,0.04044337570667267,2.514164686203003,-0.5796990394592285,-0.3515019416809082
-0.018384955614622164,-0.0694661405105964,-0.06810995268986864,0.9950867126365703,-0.027129906958397062,-0.14127535649903117,-0.13859903674649618,-0.14075404405593872,0.027126571163535118,-0.9896728992462158,0.0243472121655941,0.052325520664453506,0.019469136372208595,1.8425052165985107,-0.3939060866832733,-0.19331112504005432
0.009307910807757433,-0.07691557529602475,-0.06715619580691254,0.994729839782797,0.02885243105258642,-0.15242297735102286,-0.1326161095723752,-0.15177024900913239,-0.0288484338670969,-0.9879947304725647,0.02324897237122059,0.029223408550024033,0.009505202062427998,0.9837470650672913,-0.16513456404209137,0.0650271624326706
0.021218155711875276,-0.07968482741449455,-0.06413630532762697,0.9945284622548392,0.05244954479933825,-0.1566301103057155,-0.12468304723143314,-0.15577593445777893,-0.052425503730773926,-0.9864002466201782,0.002524007111787796,-0.029981404542922974,0.027409441769123077,0.27728304266929626,-0.03951525688171387,0.12212109565734863
0.019815833266039758,-0.07966458570797108,-0.06142209650757498,0.9947303094058353,0.04922903365430754,-0.15688739023680695,-0.1194679772211841,-0.15605528652668,-0.04920915514230728,-0.9865217804908752,-0.0017368607223033905,-0.025534940883517265,0.030682263895869255,-0.4331711530685425,0.05223402380943298,0.15826097130775452
0.001938729956859904,-0.07482466412618914,-0.058731954143456076,0.9954637927918029,0.012649405767156355,-0.14930879943756667,-0.1169164523534769,-0.14874275028705597,-0.01264907419681549,-0.9887950420379639,6.164237856864929e-05,-0.028550513088703156,0.002445030491799116,-1.347203254699707,0.3518645167350769,0.2273891568183899
-0.03370253829826837,-0.0633056449889932,-0.05642385648207745,0.9958277475865719,-0.06001597061498813,-0.1304905739547987,-0.11712198004956445,-0.12988628447055817,0.059979937970638275,-0.9897130727767944,-0.0006110151298344135,-0.032816506922245026,-0.014197925105690956,-2.231235980987549,0.6186967492103577,0.25133782625198364
-0.08419331216302656,-0.04624007344149751,-0.05378161337293682,0.9939220676747988,-0.16311176570498154,-0.10251189754157407,-0.11650190002968151,-0.10097415000200272,0.16238942742347717,-0.9815467000007629,-0.029626885429024696,-0.06487656384706497,0.015477487817406654,-2.7852065563201904,0.729261040687561,0.3776402771472931
-0.14044196466884898,-0.028006725330467854,-0.04909610877664085,0.9884743162173257,-0.2784820613217735,-0.07199149650236379,-0.10934933414942653,-0.0691581591963768,0.2748964726924896,-0.9589833617210388,-0.030871743336319923,-0.09080728143453598,0.012662343680858612,-2.876972198486328,0.735856294631958,0.4834898114204407
-0.1934958414071722,-0.009884670552960455,-0.04305051469463455,0.9801062914281389,-0.3881124240272913,-0.03894163866160756,-0.09544634290615459,-0.03603624179959297,0.37844187021255493,-0.924923300743103,-0.01860569417476654,-0.12525293231010437,-0.006451810244470835,-2.5114378929138184,0.730139970779419,0.44496843218803406
-0.23734380705279456,0.0070897291715642215,-0.03847549208100058,0.9706376349018302,-0.47945447022316634,-0.005072707309907747,-0.08047723673260072,-0.004500718787312508,0.4612951874732971,-0.8872353434562683,-0.03278420865535736,-0.044086799025535583,0.0032280301675200462,-2.040870428085327,0.6050687432289124,0.33469441533088684
-0.26997211512182856,0.019402472699963882,-0.034768255368113996,0.9620446387681274,-0.5477873729542537,0.021741935552792857,-0.06613976996467048,0.018559174612164497,0.5207995772361755,-0.8534772396087646,-0.02282286249101162,-0.02646472118794918,-0.012407018803060055,-1.2862657308578491,0.3523355722427368,0.2157517969608307
-0.2852467209178089,0.024394389451135323,-0.033815403734726815,0.957546755401409,-0.5798804771332207,0.03279146846728445,-0.060815855667208985,0.02742607332766056,0.5479239225387573,-0.8360784649848938,0.015852030366659164,0.06298962235450745,-0.036383748054504395,-0.38414105772972107,0.10847178846597672,-0.020988062024116516
-0.28599552644564896,0.02445274288808006,-0.03540168770050594,0.9572645835726258,-0.5815001196904952,0.0317966223141873,-0.06441536355988545,0.026566043496131897,0.5492780804634094,-0.8352172374725342,0.020374109968543053,0.07546079158782959,-0.01334695890545845,0.26610949635505676,-0.0693589448928833,-0.11296733468770981
-0.2763006421042778,0.019952528551539925,-0.037666405670182035,0.9601256047489657,-0.5610431492128901,0.020669183241404987,-0.07246582501440287,0.017499366775155067,0.5320696830749512,-0.8465197086334229,0.013561125844717026,0.04064039885997772,0.0038186926394701004,0.7312785983085632,-0.2464662343263626,-0.188712477684021
-0.2583540708294546,0.011360749241475647,-0.04051220707623104,0.9651337037128709,-0.523151895476482,0.00115012798344929,-0.08359435601695703,0.0009963010670617223,0.4996128976345062,-0.8662482500076294,0.009647620841860771,0.019390759989619255,0.01360670942813158,1.1682661771774292,-0.4429333209991455,-0.26202356815338135
-0.2323984810788579,-0.0007580409700919598,-0.0435664100400298,0.9716442173202724,-0.46850314522016134,-0.024348434167617082,-0.09542623245156691,-0.021722622215747833,0.4515511989593506,-0.891980767250061,-0.002352022100239992,-0.009876136668026447,0.04153461009263992,1.5723222494125366,-0.5865623950958252,-0.29322507977485657
-0.1981249794491562,-0.017920760407186653,-0.04652524650817117,0.9789080118421063,-0.3965352051546616,-0.05805613804755707,-0.10665097246320283,-0.05352117121219635,0.3862246870994568,-0.9208506941795349,0.015933047980070114,0.020861949771642685,0.016585595905780792,1.9455008506774902,-0.7661291360855103,-0.3158005177974701
-0.15767080800392647,-0.03696252604480469,-0.048670313877316934,0.9855987922688703,-0.3122518362029829,-0.09282357140608481,-0.11330409446088043,-0.08820820599794388,0.3072023391723633,-0.9475473761558533,0.00988806877285242,-0.02386428415775299,0.015573294833302498,2.2415771484375,-0.8792545199394226,-0.36409449577331543
-0.11375854139110889,-0.05592702117130171,-0.051282984161804844,0.990606600702161,-0.22144925215978148,-0.1258687856488417,-0.11745850449337823,-0.12247109413146973,0.219643697142601,-0.9678623080253601,0.01407652162015438,0.020030152052640915,0.013550324365496635,2.210206985473633,-0.699333667755127,-0.28047358989715576
-0.06999081338008034,-0.07397379111965383,-0.05358060986020082,0.9933571588187258,-0.13150331895291795,-0.15644779380304183,-0.11809593644810856,-0.15446507930755615,0.1311246156692505,-0.9792583584785461,0.01560798566788435,0.022933190688490868,-0.019287509843707085,2.1514203548431396,-0.7290024757385254,-0.36332204937934875
-0.03042413649529647,-0.08797487825717702,-0.056145245178224286,0.9940737977567942,-0.05063056034346058,-0.17951479802679676,-0.1173977290072693,-0.17832337319850922,0.05060892179608345,-0.9826695919036865,-0.004768459126353264,-0.020251229405403137,0.0046959854662418365,1.8753743171691895,-0.46344202756881714,-0.32820773124694824
0.002394084541858292,-0.09808051571886844,-0.058984540052697425,0.9934261024912935,0.016327885858857444,-0.19586493222845353,-0.11700629418619847,-0.1945890486240387,-0.01632716692984104,-0.9807489514350891,-0.0007249386981129646,0.04645365849137306,0.01316306833177805,1.3308988809585571,-0.349044531583786,-0.22447329759597778
0.021588202296902843,-0.10411052453516303,-0.05925255574118759,0.9925644605017094,0.05522105462727577,-0.20587739641129288,-0.11354537316155613,-0.20411448180675507,-0.05519299581646919,-0.9773898720741272,-0.0019804411567747593,-0.0015246933326125145,-0.0037121865898370743,0.608407735824585,-0.11726831644773483,-0.01951490342617035
0.026262831518302887,-0.1035922985724254,-0.057979138438369916,0.9925812459638954,0.0641924494092338,-0.20444147503111276,-0.11010541170138691,-0.20260213315486908,-0.06414837390184402,-0.9771577715873718,-0.020410317927598953,-0.05129034072160721,0.013971887528896332,-0.12975990772247314,0.1778571456670761,0.0783851221203804
0.01646293274184503,-0.09795415154830006,-0.056630588137389935,0.993442011975421,0.04381836136337206,-0.19416177542704377,-0.10961758960550064,-0.19275891780853271,-0.0438043437898159,-0.9802679419517517,-0.010411839932203293,-0.04815555736422539,0.023021314293146133,-0.8854822516441345,0.34719404578208923,0.1448298692703247
-0.009549076681530523,-0.0863463669062567,-0.054901285178118965,0.9947054934839068,-0.009516128662630446,-0.17370700879591328,-0.11110373337750305,-0.17282691597938538,0.009515977464616299,-0.9849062561988831,-0.00778434332460165,-0.03171204775571823,-0.006971047259867191,-1.7474365234375,0.697780966758728,0.281879723072052
-0.05129535542087017,-0.06801258742791956,-0.05159188206069646,0.9950284006604774,-0.0952066413130091,-0.14175586660720885,-0.11037101065474053,-0.14064174890518188,0.09506286680698395,-0.9854861497879028,-0.024709833785891533,-0.06426840275526047,0.03649651259183884,-2.444838285446167,0.8411597609519958,0.4064849317073822
-0.10581739468610427,-0.04714102317273501,-0.047577658230430385,0.9921274913935676,-0.20695718645921965,-0.10606681470622255,-0.10686218271499086,-0.1036088839173317,0.20548295974731445,-0.9731608033180237,-0.023498088121414185,-0.03048768825829029,0.007331907749176025,-3.0588247776031494,0.9212179780006409,0.47919803857803345
-0.16923864734264144,-0.02110672148005376,-0.04159733646436759,0.9844706639035611,-0.33785593536001984,-0.059005686465108786,-0.0945232324100047,-0.05563764274120331,0.3314649760723114,-0.9418255686759949,-0.04333963617682457,-0.14969752728939056,0.07381635904312134,-3.2516510486602783,1.1522877216339111,0.6048258543014526
-0.22753935405169695,-0.0014820488705939126,-0.0365813235958505,0.9730804837059466,-0.4586296430999294,-0.02178443458414687,-0.08023638825123809,-0.01953168213367462,0.4427197575569153,-0.8964473009109497,-0.01148359477519989,-0.10779258608818054,0.023681743070483208,-2.7315118312835693,0.6151143908500671,0.3578556776046753
-0.27198505382201504,0.011650963723849392,-0.034499836655779104,0.9616122777994924,-0.5514140836869613,0.0042740276874082975,-0.07051421544383424,0.003640543669462204,0.5238922238349915,-0.8517767786979675,0.002720569260418415,-0.04559607058763504,0.00109116081148386,-1.9681998491287231,0.4022428095340729,0.08944350481033325
-0.30391581051863714,0.01987417195394294,-0.034282847954220326,0.951874497975415,-0.6186576229021561,0.020865780363625547,-0.06533251917045445,0.016997238621115685,0.5799420475959778,-0.8144804239273071,0.00555060151964426,0.04183313250541687,-0.019886299967765808,-1.1405982971191406,0.16415518522262573,0.08584976196289062
-0.30586837454173843,0.01471665474649387,-0.03392542432208591,0.9513554517943943,-0.6223887200855506,0.008920998974440306,-0.06842058335577911,0.007248114328831434,0.5829775929450989,-0.812455952167511,0.005136486142873764,0.09930665045976639,-0.09413820505142212,1.0275992155075073,-0.5572267174720764,-0.2263544499874115
-0.26699384590065867,-0.0008953424062929916,-0.036685864323115464,0.9629993453044645,-0.5400327773391077,-0.024853241634184682,-0.08303312499900212,-0.021314222365617752,0.5141640901565552,-0.8574270009994507,-0.002074040472507477,0.07659231126308441,-0.03857290744781494,2.9644827842712402,-0.795615553855896,-0.4439747631549835
-0.19663416664049943,-0.02604024615480777,-0.04305008366409761,0.9791852495182507,-0.3928690764434487,-0.07359490723708789,-0.10252563186779151,-0.06792667508125305,0.38284045457839966,-0.9213138222694397,0.017584115266799927,0.0792059525847435,-0.037802599370479584,4.154885292053223,-1.0680618286132812,-0.7549480199813843
-0.11214575090217654,-0.05198219599931137,-0.05104807823719022,0.9910173685883049,-0.2187090343523749,-0.11754431367461265,-0.11585078773227668,-0.114480160176754,0.2169695645570755,-0.9694423675537109,0.011994275264441967,-0.002280385233461857,0.07058119773864746,4.427434921264648,-1.0689923763275146,-0.8038882613182068
-0.027332703228672234,-0.07961493013851043,-0.062397740953666216,0.9944953728588434,-0.04444353978110054,-0.16264032503859982,-0.12894471049597303,-0.16176433861255646,0.04442889988422394,-0.9858287572860718,0.06083288416266441,0.18205450475215912,-0.007293224334716797,3.8066153526306152,-0.8658450245857239,-0.8531014919281006
0.032580615898687985,-0.09548973852777295,-0.06893207440671842,0.9925062775611264,0.07791635703832123,-0.18670257677376983,-0.13138392934953327,-0.18505661189556122,-0.07783754169940948,-0.9796404242515564,0.04679632931947708,0.21489259600639343,0.006746246013790369,2.0329809188842773,-0.36171674728393555,-0.25831103324890137
0.0487725931665592,-0.09555122515907746,-0.06455602413421772,0.9921309633602295,0.10933210096525615,-0.18546396274353677,-0.11977512205113747,-0.18330150842666626,-0.10911441594362259,-0.9769824147224426,0.025894686579704285,-0.009626739658415318,0.030473096296191216,-0.3298744559288025,0.43229860067367554,0.4716472923755646
0.024358131251881788,-0.08250980320157567,-0.05765331600147258,0.9946231018607732,0.05800076211595808,-0.16230707969743108,-0.11108178054386683,-0.1613236367702484,-0.057968251407146454,-0.9851976037025452,-0.03003227338194847,-0.16147804260253906,0.10598057508468628,-2.099194049835205,0.6508792638778687,0.39991655945777893
-0.03330453259569327,-0.06295658249148937,-0.053003256739708966,0.9960512260498187,-0.05970770334122938,-0.12953862725574095,-0.11020028558002366,-0.128946453332901,0.059672221541404724,-0.9898545742034912,-0.03397230803966522,-0.18175800144672394,0.04011168330907822,-3.5994153022766113,1.0482730865478516,0.49036920070648193
-0.11248513016635557,-0.03498093724550936,-0.049068141429146846,0.9918244824128875,-0.2215050121167144,-0.08253670718647685,-0.10804846725474364,-0.08042876422405243,0.21969808638095856,-0.9722468852996826,-0.07665751874446869,-0.1561865210533142,0.08937538415193558,-4.37546443939209,1.1685278415679932,0.46707284450531006
-0.20294354148172308,-0.0034790926600335808,-0.044616442846725286,0.9781673623728391,-0.4079354607418625,-0.02714612969046782,-0.09677674060254549,-0.024915501475334167,0.3967150151729584,-0.917603611946106,-0.047420941293239594,-0.14399968087673187,0.05464258790016174,-4.766085147857666,1.4101414680480957,0.5335848331451416
-0.2914890659159645,0.03048510448958157,-0.0395977246120175,0.9552680109665646,-0.5935587961225125,0.04242547734103604,-0.06988054995507556,0.03515828400850296,0.5593146085739136,-0.8282095789909363,-0.019575074315071106,-0.1446162760257721,0.0022753048688173294,-4.259396076202393,1.3744763135910034,0.5872282385826111
-0.35232369780849093,0.05795569727964797,-0.03465950466338642,0.9334387649246975,-0.7231673951264207,0.11197448610711265,-0.03183983476611964,0.08377345651388168,0.6617625951766968,-0.7450183033943176,-0.06897246092557907,-0.18106859922409058,0.05567507445812225,-2.265702486038208,0.8069342374801636,0.3213770389556885
-0.3848721796700387,0.0710171626822971,-0.033009751568715474,0.9196414764821015,-0.7931649653512108,0.1505286943059317,-0.00862221075696008,0.10521158576011658,0.7125772833824158,-0.6936599612236023,0.0401470921933651,0.12419677525758743,-0.004863586276769638,-1.5775059461593628,0.3952282667160034,0.08427536487579346
-0.4086050607554745,0.08164180645378759,-0.032617293465282166,0.9084672193124246,-0.8446435478256927,0.18429910417678128,0.011227721630904127,0.12168262153863907,0.7477344274520874,-0.6527530550956726,0.05720038712024689,0.19264675676822662,-0.03719450533390045,-0.8906686305999756,0.45865219831466675,0.1218564510345459
-0.4169803400587084,0.08763877008203118,-0.033404152538829904,0.904063703002833,-0.863018635954708,0.20226053607171,0.019517326601903022,0.1306043118238449,0.7598085403442383,-0.6368936896324158,0.06855430454015732,0.24243856966495514,0.015423732809722424,-0.1392865777015686,0.1363825798034668,-0.057750433683395386
-0.4126449771589993,0.08584072489621687,-0.03496526342379292,0.9061639051590358,-0.8539034025064987,0.19407174327995833,0.011376880948476371,0.1267150491476059,0.7538508176803589,-0.6447110176086426,0.053241122514009476,0.17693033814430237,0.031745266169309616,0.7093616724014282,-0.24712422490119934,-0.12485500425100327
-0.39258894082638973,0.07672965051549385,-0.036990843529468916,0.9157610211406866,-0.8106161737337223,0.16251299122420107,-0.01088926311605318,0.11148764938116074,0.7247118353843689,-0.6799730062484741,0.05120918154716492,0.1263718456029892,0.02610630914568901,1.5381512641906738,-0.45697730779647827,-0.22237461805343628
-0.35742681459334624,0.061076348562638334,-0.04054596225792885,0.9310595869516387,-0.7349150347321322,0.1144814780039759,-0.04293175871404642,0.08474700897932053,0.6705240607261658,-0.7370315194129944,0.028615234419703484,0.060486555099487305,0.04132890701293945,2.3618133068084717,-0.8088255524635315,-0.37084755301475525
-0.3070922874840235,0.03941587518202427,-0.045361144299807706,0.949780652205231,-0.627245142566497,0.05809838805093839,-0.0765991152072585,0.04701275750994682,0.5869165062904358,-0.808281421661377,0.027248144149780273,0.059502001851797104,0.041178107261657715,3.0650930404663086,-0.9349141716957092,-0.4466021656990051
-0.24417282715128988,0.01468922119931668,-0.04962481873803723,0.968349844391238,-0.49422250697878456,0.004787436861096691,-0.10119629917397253,0.004214549902826548,0.4743472933769226,-0.8803277015686035,0.009896671399474144,-0.017651058733463287,0.0697924941778183,3.6319515705108643,-1.1533148288726807,-0.4789702892303467
-0.17184823886380923,-0.013528714504570043,-0.054113200263409565,0.9835430660088359,-0.34327850837150786,-0.048030318795566566,-0.1182538147438396,-0.04521065577864647,0.33657610416412354,-0.9405702948570251,0.019098971039056778,0.006285420618951321,0.08305425196886063,3.8699357509613037,-1.1090188026428223,-0.39599722623825073
-0.09365769912617376,-0.04512261492075402,-0.05742112725246618,0.9929224871134696,-0.18180761265496329,-0.10222215742041578,-0.12485829263650818,-0.1003623679280281,0.1808076649904251,-0.9783843755722046,0.02898012101650238,0.0018469775095582008,0.047749608755111694,4.0330729484558105,-1.3603371381759644,-0.5123697519302368
-0.01691344139309197,-0.07343773356496369,-0.06047278889076985,0.9953209942699275,-0.02478917625107707,-0.1488282105899051,-0.12321312503089259,-0.1482338309288025,0.024786628782749176,-0.9886416792869568,0.02986999973654747,-0.023200370371341705,0.07040765136480331,3.7945127487182617,-1.0432400703430176,-0.4326156973838806
0.05441423549122611,-0.09777690130356206,-0.06326812338879756,0.9917036303467777,0.12058996812522262,-0.1895473156482783,-0.11594527937899303,-0.18704602122306824,-0.12029790878295898,-0.9749575257301331,0.007558852434158325,0.04226665198802948,0.04129185155034065,3.331987142562866,-0.9563825726509094,-0.3607761263847351
0.11330244515657598,-0.11750442992207072,-0.06432657953985384,0.9844884490248167,0.24051950897270177,-0.22510846578017774,-0.10317822566107293,-0.21678677201271057,-0.23820720613002777,-0.9467105269432068,-0.009452303871512413,0.0006813440122641623,0.04329849034547806,2.6402430534362793,-0.7215783596038818,-0.27725404500961304
0.15608806670427858,-0.1329797511725434,-0.06465404651409734,0.9766129832854529,0.3279158405902927,-0.2558202739654025,-0.08966213573787246,-0.23955602943897247,-0.3220705986022949,-0.9159058332443237,-0.004656073171645403,-0.015723859891295433,0.031035928055644035,1.7386534214019775,-0.5928372144699097,-0.1538236141204834
0.1787898250429512,-0.14252383431343305,-0.06412776847631932,0.9713953524978043,0.374310310985571,-0.27636013841901214,-0.07918281751502101,-0.2539631724357605,-0.3656306564807892,-0.8954423069953918,-0.015425560995936394,-0.07003560662269592,-0.010018410161137581,0.6439632177352905,-0.20140907168388367,-0.007521525025367737
0.18025262487577087,-0.1429273196247964,-0.06268126877822325,0.9711600783645633,0.3768851654988389,-0.2778228969035694,-0.07559345515443673,-0.25501367449760437,-0.3680260181427002,-0.8941615223884583,-0.03196335956454277,-0.08522447198629379,0.024053800851106644,-0.45345309376716614,0.17477533221244812,0.12388845533132553
0.15945421533330295,-0.13530791163919823,-0.06059856373432203,0.9760091746448794,0.3338220611179296,-0.26209163598963475,-0.07961298969810374,-0.24479810893535614,-0.32765647768974304,-0.9125322699546814,-0.036914512515068054,-0.12597188353538513,0.01876850426197052,-1.6041563749313354,0.575416088104248,0.23720166087150574
0.11896190105755607,-0.12041362587984292,-0.05897679955532752,0.9838040850005254,0.25089767611480346,-0.23217968815837045,-0.0903415562109387,-0.2228948324918747,-0.24827362596988678,-0.9426972270011902,-0.02731281891465187,-0.09477512538433075,0.044249434024095535,-2.553870677947998,0.7335914373397827,0.26323455572128296
0.06003271157758697,-0.09977654758210702,-0.05806500018348013,0.9914985519779111,0.13100615693374928,-0.1937446698032836,-0.10424335603427995,-0.19088499248027802,-0.13063174486160278,-0.9728814363479614,-0.019690681248903275,-0.09098517894744873,0.02629503235220909,-3.3402740955352783,1.0570341348648071,0.30998414754867554
-0.010949905781463654,-0.07328783537044845,-0.05634767182593411,0.9956575938497496,-0.01354593015227315,-0.14772337527162815,-0.11406861616254285,-0.14717316627502441,0.013545508496463299,-0.9890179634094238,-0.027894508093595505,-0.0967709869146347,0.04358119145035744,-3.779233455657959,1.2163517475128174,0.41604721546173096
-0.08856526070030332,-0.044117834052764156,-0.0544837477432177,0.9936002386798254,-0.17203688389527202,-0.09894124220420364,-0.11809838173239341,-0.09732170403003693,0.17118950188159943,-0.9804196357727051,-0.013729684986174107,-0.029648827388882637,-0.010812332853674889,-4.171233177185059,1.3158133029937744,0.38599681854248047
-0.1721591435641615,-0.008210910046594069,-0.050674432557922554,0.9837306393213567,-0.3446680645433642,-0.03571011981079022,-0.10915040549265861,-0.033602774143218994,0.33788424730300903,-0.9405876398086548,-0.019344601780176163,-0.11655977368354797,0.0510011687874794,-4.3352460861206055,1.6529592275619507,0.5950090289115906
-0.2537178340747468,0.029029495206016723,-0.045257578810179694,0.9657827745924356,-0.5151900472129877,0.03805457242926457,-0.08362703422334125,0.03310706466436386,0.4927001893520355,-0.8695691227912903,-0.04638119041919708,-0.18881163001060486,0.08482471108436584,-4.122486114501953,1.4310705661773682,0.48169374465942383
-0.3228094934802831,0.0593626444317823,-0.040301771310792024,0.9437404012498968,-0.6612217425227047,0.10921549710446399,-0.047840259367988414,0.08602625876665115,0.6140815019607544,-0.7845402359962463,-0.050816841423511505,-0.17629793286323547,0.08128069341182709,-3.050034523010254,1.0540276765823364,0.44308143854141235
-0.368123503250291,0.07584017018451318,-0.03707316183989678,0.9259368345534048,-0.7578225134546619,0.15642126819734778,-0.017648040116552254,0.11315140873193741,0.6873414516448975,-0.7174667119979858,0.06948628276586533,0.20869062840938568,-0.05727505311369896,-2.0547614097595215,0.4504852592945099,0.12916845083236694
-0.3895478444406565,0.08457546689518008,-0.035171968978490065,0.9164401347603557,-0.803721526079806,0.18492603550218845,0.002055199300985674,0.12761437892913818,0.7199438810348511,-0.6821989417076111,0.07439295947551727,0.25484973192214966,-0.011028931476175785,-0.23259064555168152,0.07935655117034912,0.08532693237066269
-0.38053844500068257,0.07949538736824675,-0.034033246188920195,0.9207131488570143,-0.7840381771892098,0.17098940715664923,-0.003061311069947244,0.12048297375440598,0.7061444520950317,-0.6977419853210449,0.08717647939920425,0.2511935234069824,0.004462003707885742,1.1409159898757935,-0.44228595495224,-0.06889320909976959
-0.35139764077364455,0.06531197225904506,-0.03496499947788512,0.9332907368904018,-0.7214573192485437,0.13000249597496902,-0.025792602285549387,0.09733688086271286,0.6604795455932617,-0.7445080876350403,0.01239337120205164,0.053090650588274,0.053277820348739624,2.0178873538970947,-0.8777807354927063,-0.29365983605384827
-0.309500164055846,0.04352451147576077,-0.03849355020486767,0.9491225684332207,-0.6321219288653336,0.07293829143533537,-0.0572075779715433,0.05879267305135727,0.590857982635498,-0.8046305179595947,0.02700340747833252,0.041795749217271805,0.0072196004912257195,2.4769210815429688,-0.8482370376586914,-0.43610841035842896
-0.26090006989040465,0.020820434453113372,-0.04349976583978921,0.9641605329064908,-0.5292782387678739,0.0202178623624773,-0.08469319696549019,0.017450300976634026,0.504910409450531,-0.8629953265190125,-0.00723724439740181,-0.018212763592600822,0.07068627327680588,2.7360074520111084,-1.106348991394043,-0.46728935837745667
-0.20855264220186043,-0.003948864239644208,-0.047330505342707364,0.9768572666968465,-0.41925328755397273,-0.03006470252645521,-0.1032247021466242,-0.027456751093268394,0.40707850456237793,-0.9129804372787476,0.0034770816564559937,-0.01610218547284603,0.07360877841711044,2.74166202545166,-0.9950711727142334,-0.38498982787132263
-0.1561021235267007,-0.028141474293140484,-0.05016902294933523,0.9860646192985338,-0.3099698269275857,-0.07479239202241998,-0.11335912943827127,-0.07116159796714783,0.30502986907958984,-0.9496803879737854,0.014676893129944801,0.030799034982919693,0.013688135892152786,2.6655173301696777,-0.901900053024292,-0.3029944896697998
-0.10550146223295818,-0.048765821192546896,-0.05135300833859675,0.9918942832670441,-0.20573227923083814,-0.11011660483471285,-0.11483173614943747,-0.10757670551538467,0.20428402721881866,-0.9729827046394348,0.004014487843960524,-0.012226525694131851,0.024459950625896454,2.4921905994415283,-0.7703747749328613,-0.2481043040752411
-0.058459711968024054,-0.06722207983055895,-0.05287618963231652,0.9946194359900098,-0.10939952632453966,-0.1412132798282705,-0.11396935663290082,-0.1399030089378357,0.10918142646551132,-0.9841272830963135,0.008804363198578358,0.010281940922141075,0.030129196122288704,2.27260160446167,-0.785435140132904,-0.24602705240249634
-0.01570141021302713,-0.08272803087001483,-0.053370184603742085,0.9950182692128113,-0.022417837138556104,-0.1671264999026294,-0.10904986342579984,-0.16630776226520538,0.022415950894355774,-0.9858191013336182,0.0035826759412884712,-0.033986981958150864,0.03131578117609024,2.0807716846466064,-0.5493083000183105,-0.18774762749671936
0.02394334039406045,-0.0962897769452747,-0.053898393553413505,0.993604616329643,0.05799265652848565,-0.19023003866295352,-0.10285021639572645,-0.18876689672470093,-0.057960160076618195,-0.9803099632263184,-0.010524185374379158,-0.01711767166852951,0.061713915318250656,1.8897309303283691,-0.6198474168777466,-0.1960974633693695
0.05624850980472025,-0.10972897707328502,-0.05406594603433332,0.990894857617048,0.12365278808977356,-0.21464832985780258,-0.09567848236472609,-0.21137748658657074,-0.12333791702985764,-0.9695913195610046,-0.005128277465701103,-0.0004038080805912614,-0.0014655869454145432,1.369468092918396,-0.4758649468421936,-0.08763088285923004
0.07716115483487784,-0.11814636008407609,-0.05220533443964787,0.988616414662679,0.16565794961667557,-0.23071843785620325,-0.08627612470645198,-0.22554638981819153,-0.16490130126476288,-0.9601752161979675,-0.0018492462113499641,-0.03006231039762497,0.004342322703450918,0.7651799321174622,-0.259662002325058,0.05809386074542999
0.08443814250060647,-0.12123029009274855,-0.04928179284576681,0.98779793525019,0.17973061858065037,-0.23718190881228338,-0.0782265415081708,-0.23117952048778534,-0.17876453697681427,-0.9563468098640442,-0.010419516824185848,-0.04468562826514244,-0.005888480693101883,-0.01087925210595131,0.009307519532740116,0.16434437036514282
0.07605412291515298,-0.11776046420164975,-0.04603246559207759,0.9890547941711033,0.1619925601682847,-0.23098705670304603,-0.07418327171590353,-0.22594116628170013,-0.16128499805927277,-0.9606965184211731,-0.018806040287017822,-0.07096761465072632,0.0014164004242047668,-0.8036996722221375,0.3277832865715027,0.22580590844154358
0.05238208094580036,-0.10789065275705398,-0.04324029219005864,0.9918398068860523,0.11348313662630967,-0.2124410349664693,-0.07502429970448193,-0.20949043333530426,-0.11323971301317215,-0.9712314605712891,-0.027524210512638092,-0.08829803764820099,0.016525328159332275,-1.5454847812652588,0.5652352571487427,0.2650595009326935
0.015710058931764588,-0.09348815999750155,-0.04098231047027568,0.99465257914675,0.03892465143012337,-0.1858976697510576,-0.07872979399269674,-0.18468879163265228,-0.03891482576727867,-0.9820263385772705,-0.030942054465413094,-0.10677609592676163,0.0290210098028183,-2.1229655742645264,0.7418360710144043,0.27453386783599854
-0.03177049481199906,-0.07527840427702309,-0.03946217013335764,0.9958747805949664,-0.057369034414662554,-0.15329407246955568,-0.08361683074333523,-0.15244318544864655,0.05733755975961685,-0.9866476058959961,-0.041770052164793015,-0.11329253017902374,0.017949506640434265,-2.6174440383911133,0.8937715291976929,0.29969698190689087
-0.08694888395467064,-0.053360249821855776,-0.03788494647217509,0.9940610429163895,-0.16963428650577358,-0.11456607578468476,-0.0859368342961171,-0.1126747876405716,0.16882187128067017,-0.979185163974762,-0.036683157086372375,-0.1237974613904953,0.0277712345123291,-2.96201753616333,1.0601346492767334,0.2882858216762543
-0.15050156721996605,-0.028042518137126674,-0.03695772295847772,0.9875206681710761,-0.2996376710576817,-0.06966749415724284,-0.08533506658074926,-0.06650951504707336,0.2951740026473999,-0.9531257748603821,-0.02173876017332077,-0.034850362688302994,-0.0054307193495333195,-3.474888324737549,1.2411762475967407,0.4166368842124939
-0.21915906372202953,0.0027847187445872263,-0.03285524132186358,0.9751319131487592,-0.44183722693216493,-0.009923208274329461,-0.0695893922696341,-0.008970106951892376,0.4276009500026703,-0.9039230942726135,-0.026423336938023567,-0.14558306336402893,0.0453752800822258,-3.5898277759552,1.3951102495193481,0.5421563982963562
-0.2861326226211242,0.03417256560447822,-0.030382734191997298,0.9570983947433038,-0.5821136008448915,0.05752710218379366,-0.046230575075494676,0.048026032745838165,0.549790620803833,-0.8339207172393799,-0.045581284910440445,-0.16813984513282776,0.043794550001621246,-3.3393948078155518,1.3891005516052246,0.3221306800842285
-0.34069390554635715,0.06086112142271658,-0.03061072443963267,0.9377028634831394,-0.6979720575041101,0.12205690431691851,-0.02080364428850318,0.09328152239322662,0.6426652669906616,-0.7604472041130066,-0.04119843989610672,-0.11385646462440491,0.07336737960577011,-2.515268087387085,0.9898369312286377,0.11221691966056824
-0.38116093519501537,0.07692047370278211,-0.033347087394527956,0.9206995995123883,-0.7852465812311717,0.1650839008896745,-0.003912744286207461,0.11622007936239243,0.7069995403289795,-0.6975991725921631,0.06570488959550858,0.16858652234077454,-0.014123111963272095,-1.7523161172866821,0.6463292241096497,-0.00832068920135498
-0.3998215928690307,0.08497135190735693,-0.03510726560813372,0.9119704713970465,-0.8259870540132132,0.18834005122263855,0.005773122544017657,0.12690943479537964,0.7352171540260315,-0.6658451557159424,0.08883384615182877,0.2323177605867386,0.0051648919470608234,-0.4130327105522156,0.14744406938552856,-0.08940397948026657
-0.3964904760505137,0.08109170473981911,-0.03706544118978301,0.9136988654569878,-0.8191375788357766,0.17485812915610122,-0.005021794929327226,0.11879460513591766,0.7305571436882019,-0.67243891954422,0.08584105968475342,0.24875323474407196,0.0072043538093566895,0.8509647846221924,-0.36906954646110535,-0.19501495361328125
-0.3713701029772426,0.06703577297780275,-0.03965417965926285,0.925212484573109,-0.7649612001488162,0.13149966895756734,-0.032701443333742905,0.09459191560745239,0.6925089359283447,-0.7151809334754944,0.053437452763319016,0.12928232550621033,0.031172331422567368,1.9122564792633057,-0.8148077726364136,-0.366959810256958
-0.3287060642876486,0.04555323008936072,-0.045309964649708344,0.942244278864775,-0.6733020913159168,0.07176739456476562,-0.0709744025853147,0.056057222187519073,0.6235707998275757,-0.7797544598579407,0.012939903885126114,0.047102104872465134,0.062125395983457565,2.786353588104248,-0.988723874092102,-0.591272234916687
-0.26999519449068343,0.016795874575505323,-0.05241083790498865,0.961287510429006,-0.5478423784061088,0.004674038816729397,-0.10762182402754028,0.003989984281361103,0.5208465456962585,-0.8536409735679626,0.03649818152189255,0.055433548986911774,0.028151914477348328,3.445425271987915,-1.131300687789917,-0.6392388939857483
-0.20231778194769334,-0.012720567696690345,-0.059690641817299696,0.9774164062116769,-0.40495656739509456,-0.05335846663217937,-0.13294467327679405,-0.04901953041553497,0.3939788043498993,-0.917811393737793,0.018542826175689697,0.0737808421254158,0.07746561616659164,3.550617218017578,-1.1547703742980957,-0.5922061204910278
-0.13429803470539015,-0.04183577431952294,-0.06384060440102735,0.9879971601072968,-0.2630538013085186,-0.1035554748594532,-0.1427644381937087,-0.09981457889080048,0.26003047823905945,-0.9604276418685913,0.0031963028013706207,-0.015910740941762924,0.0875527411699295,3.5029778480529785,-1.2693350315093994,-0.5253875255584717
-0.06877684914568222,-0.06898156130040892,-0.06754800962805955,0.992949445265445,-0.12761079886615553,-0.1480210218963946,-0.14532060678296646,-0.1462818682193756,0.12726472318172455,-0.9810225963592529,0.0032337959855794907,-0.040202707052230835,0.06873687356710434,3.2812132835388184,-0.9714096784591675,-0.46007871627807617
-0.005087372468014509,-0.09352769214546915,-0.07155870890731227,0.9930287711620776,0.003281633223353524,-0.18757855441203133,-0.14356476128128395,-0.18647944927215576,-0.0032816340681165457,-0.9824534058570862,0.02649802342057228,0.02665969729423523,0.015761228278279305,3.1096622943878174,-0.8450356721878052,-0.42559999227523804
0.056517395597787776,-0.11475291418660563,-0.07433503070663816,0.9889954435665707,0.12921045166871584,-0.22224008567383163,-0.13560511216574173,-0.21857775747776031,-0.12885122001171112,-0.967275083065033,-0.0003574434667825699,0.023136304691433907,0.04823443293571472,3.0922820568084717,-0.8889427185058594,-0.46200597286224365
0.11513072762252217,-0.13560856451596978,-0.07651144698723904,0.9810715255345377,0.2492262323290353,-0.25928261752760456,-0.12300163706068931,-0.24846574664115906,-0.24665416777133942,-0.9367104768753052,0.009589637629687786,0.05110864341259003,0.04736674576997757,2.9183542728424072,-0.8580135107040405,-0.37729501724243164
0.16969125628483506,-0.1553064951236366,-0.07654765748468276,0.9701676670195443,0.36081261131989645,-0.29874273067659013,-0.10259412463259521,-0.27536770701408386,-0.3530346155166626,-0.8941695690155029,0.014537262730300426,0.046850670129060745,-0.0013080259086564183,2.7158279418945312,-0.7113242149353027,-0.24523261189460754
0.2184765005887191,-0.17075692459956732,-0.0746602477821497,0.9578810590431668,0.46010982373735104,-0.33491516655526776,-0.07643404088759397,-0.29450660943984985,-0.4440464973449707,-0.8462201952934265,-0.006877195090055466,-0.006026848219335079,0.05110250040888786,2.37983775138855,-0.5886774063110352,-0.21346667408943176
0.26049144007870895,-0.18552459912886474,-0.0736689301941316,0.9446151482248284,0.5462225258397932,-0.37392009430870543,-0.04978391942067446,-0.31211841106414795,-0.519463062286377,-0.7954496741294861,-0.0055965278297662735,-0.030027152970433235,0.03176051750779152,2.061936855316162,-0.6671740412712097,-0.1960836946964264
0.29409797591969566,-0.19622995303284899,-0.07315849362244477,0.9325492569750582,0.6153366708329049,-0.40661163514032883,-0.02575189087997161,-0.3229566514492035,-0.5772334337234497,-0.7500003576278687,-0.015106495469808578,-0.042997851967811584,0.00028616003692150116,1.4616159200668335,-0.3328198790550232,-0.12412460148334503
0.3132428021445421,-0.20179300522953267,-0.07172261476442539,0.9252105537878139,0.6542664470458319,-0.42679145688795145,-0.007935395441764252,-0.32846882939338684,-0.608577311038971,-0.722317099571228,-0.022566700354218483,-0.0864642933011055,0.0038788137026131153,0.5314894318580627,-0.1105964407324791,0.0018248111009597778
0.31176573765240073,-0.20066429975788522,-0.06979116879882095,0.9261022238435643,0.6503475874993249,-0.4249988318130825,-0.00521065906899086,-0.3281542956829071,-0.6054630279541016,-0.7250719666481018,-0.019670188426971436,-0.09841110557317734,0.011350859887897968,-0.6900100708007812,0.26411405205726624,0.1799996793270111
0.2862249657274052,-0.19077398477784308,-0.06746172246366325,0.9365519654724774,0.5966434186633871,-0.39552080122240574,-0.020738573817347686,-0.3187210261821747,-0.5618689656257629,-0.7633610963821411,-0.02995903603732586,-0.15555691719055176,0.009739687666296959,-1.9613308906555176,0.7276253700256348,0.29330378770828247
0.2393211422341478,-0.1727648313282374,-0.06551627202441787,0.9531975020528085,0.49937669658660155,-0.34633497916409195,-0.04809718658746982,-0.29799914360046387,-0.4788784086704254,-0.8257554173469543,-0.031232785433530807,-0.15098245441913605,0.07995960861444473,-2.9387640953063965,0.9544658064842224,0.3752862215042114
0.17657817514925153,-0.15080741527678224,-0.06468442262209437,0.9705118802540988,0.37068309395415244,-0.29374911219473576,-0.0776414920675129,-0.26987704634666443,-0.36225220561027527,-0.8921545743942261,-0.014835212379693985,-0.14197061955928802,0.10013692826032639,-3.547403573989868,1.0437991619110107,0.36426621675491333
0.10261934202170847,-0.12615677039473042,-0.06497751359756469,0.9845465001235543,0.2202378504901534,-0.2432902320050285,-0.1047721870638301,-0.23507849872112274,-0.21846172213554382,-0.9471074938774109,-0.025307176634669304,-0.1296638399362564,0.07677692174911499,-3.997229814529419,1.0760118961334229,0.37418991327285767
0.021089056014487143,-0.09983374960143974,-0.0656196909555445,0.9926140449744032,0.05499642555031409,-0.19699257878985077,-0.1265879490931469,-0.19542503356933594,-0.054968710988759995,-0.979176938533783,-0.016438663005828857,-0.06803134083747864,0.017701374366879463,-4.3052263259887695,1.1624431610107422,0.40127164125442505
-0.06594741014065585,-0.06826207715003567,-0.06440932212274002,0.9933996661459288,-0.12253726938150553,-0.14572229930767486,-0.13844850017459454,-0.1441182941198349,0.12223082780838013,-0.9819824695587158,-0.0013297926634550095,-0.021744603291153908,0.07181122153997421,-4.5603532791137695,1.3791470527648926,0.5783683061599731
-0.15748837767102253,-0.03349099666349016,-0.06025304716447638,0.9851118778648617,-0.3112527931760195,-0.08937046579875489,-0.13620602412190017,-0.08496305346488953,0.3062514364719391,-0.9481515288352966,0.0029590781778097153,-0.03081415966153145,0.035226479172706604,-4.8215227127075195,1.4512499570846558,0.7045289874076843
-0.24676218509516062,0.005412498586819357,-0.05376831376390961,0.9675681827871015,-0.4984907708030115,-0.01828857087370192,-0.11568221689358239,-0.016062045469880104,0.4781004786491394,-0.8781582713127136,-0.03625898435711861,-0.18145202100276947,0.18532894551753998,-4.437289714813232,1.3957784175872803,0.5557227730751038
-0.32715084497504016,0.03569907497247822,-0.04898144436871514,0.9430264369101173,-0.6694068778561842,0.04500646524715062,-0.08813307472344573,0.035281702876091,0.6205209493637085,-0.7833958268165588,0.01263575442135334,-0.04820134490728378,0.02307567186653614,-3.711930274963379,1.153937578201294,0.5296038389205933
-0.3764891651312463,0.05748450955605477,-0.04504338387911733,0.9235380718905122,-0.7762138350808186,0.10144139479874152,-0.05596472191371886,0.07226157188415527,0.7005826830863953,-0.7099028825759888,0.013234458863735199,0.0882030799984932,0.094669409096241,-1.9190369844436646,0.4145350754261017,0.13266852498054504
-0.4010057967114107,0.06527699354568489,-0.042875620384797516,0.9127403528377747,-0.8295475202308441,0.12588605483398035,-0.03839115978407709,0.08477514982223511,0.7376258969306946,-0.6698665618896484,0.10028356313705444,0.3320044279098511,-0.028528468683362007,-0.49548378586769104,0.1797623485326767,0.19410274922847748
-0.3936713981242698,0.06348062473168768,-0.040755984534178974,0.9161506865842599,-0.8132134127012829,0.12287985650236342,-0.03594691813211667,0.08422670513391495,0.7264990210533142,-0.6819860935211182,0.0961366593837738,0.2927459478378296,0.012415915727615356,1.162477970123291,-0.341331422328949,-0.03811056911945343
-0.3620616645924838,0.051700911831399674,-0.042246549509991176,0.9297600511249056,-0.7445341739639947,0.08924930985044227,-0.0559446866759899,0.06554717570543289,0.677629292011261,-0.7324767708778381,0.03120359405875206,0.11114820837974548,0.09184369444847107,2.2511236667633057,-0.7489843368530273,-0.301948219537735
-0.3133556929133473,0.02981564871205809,-0.0453868121099183,0.9480819796063997,-0.6396070924668513,0.03501882707334454,-0.08407318126786612,0.028090929612517357,0.5968801975250244,-0.8018385171890259,0.021476827561855316,0.03754207864403725,0.06612179428339005,3.077035665512085,-1.063631534576416,-0.4607353210449219
-0.24994285266821317,0.002628539981488949,-0.04935902105885272,0.9669981515864359,-0.5048178706990615,-0.022384046555787532,-0.10777187465060804,-0.01959027722477913,0.48364800214767456,-0.8750433325767517,0.024655170738697052,-0.006751027889549732,0.06720428168773651,3.577047348022461,-1.0989524126052856,-0.4879351258277893
-0.18080909679703028,-0.025537275219436145,-0.05340826346365436,0.9817349755718388,-0.360011958752383,-0.07428094176413291,-0.12222003261929536,-0.06945506483316422,0.35228538513183594,-0.9333118200302124,0.013571074232459068,-0.03341199457645416,0.09511484205722809,3.5391898155212402,-1.1588404178619385,-0.48732805252075195
-0.11586745090477418,-0.05291371078286237,-0.05649317289885827,0.9902441980442505,-0.22539933647775232,-0.12124258154997157,-0.12771471349189525,-0.11788641661405563,0.22349558770656586,-0.967549741268158,0.01290477067232132,-0.07659165561199188,0.060540083795785904,3.1066091060638428,-1.0636231899261475,-0.4379804730415344
-0.061300411077588,-0.07623004786575877,-0.05994022126625012,0.9933975094916592,-0.11289250393453455,-0.16050784600870333,-0.1296202630364993,-0.15880218148231506,0.11265284568071365,-0.9808624982833862,0.026566946879029274,-0.031121328473091125,0.02558385208249092,2.3573222160339355,-0.8449811339378357,-0.32174554467201233
-0.020296636128189854,-0.09269236651120964,-0.06021180046291298,0.9936653389187988,-0.02917791901282857,-0.18783667432390308,-0.12379193314052542,-0.18665456771850586,0.029173770919442177,-0.9819923639297485,-0.047803692519664764,-0.1583213210105896,0.0820520669221878,1.9238672256469727,-0.6960911154747009,-0.17220380902290344
0.01073213111434139,-0.10861328986627278,-0.059633203206131045,0.9922358850583076,0.03425822866664903,-0.2160629821015854,-0.11633947545881408,-0.2142600119113922,-0.034251533448696136,-0.9761759638786316,-0.01510893739759922,-0.08459283411502838,0.018913041800260544,1.1434556245803833,-0.5984485149383545,-0.08420670032501221
0.021145573647817342,-0.11566659702429598,-0.05745346293867354,0.9913996530101042,0.05524642110750038,-0.2292637556927514,-0.10941177241441662,-0.22691385447978973,-0.055218324065208435,-0.9723482131958008,-0.014215858653187752,-0.05208928510546684,0.0009760616812855005,-0.07847130298614502,-0.07510058581829071,0.1898581087589264
0.004178174588134034,-0.11092939848082826,-0.052697044344902036,0.9924214751994547,0.019985653678144467,-0.22158994569118864,-0.10387580522135004,-0.21973706781864166,-0.019984329119324684,-0.9753544330596924,-0.024214863777160645,-0.03914663940668106,-0.0118505684658885,-1.5876877307891846,0.4951615631580353,0.48539838194847107
-0.042056872982134334,-0.09324522527002554,-0.046188183150579126,0.9936817107245797,-0.07503903842833591,-0.19088829960411077,-0.10008409204764306,-0.18919719755649567,0.074968621134758,-0.9790731072425842,-0.05318543314933777,-0.14080660045146942,0.010163776576519012,-2.957909345626831,1.0319080352783203,0.6630045771598816
-0.11100143996182506,-0.06579461273142738,-0.03993564642523487,0.9908355161336733,-0.21639820985375055,-0.14306184967775346,-0.0961325405423225,-0.13924908638000488,0.2147132158279419,-0.966699481010437,-0.10847601294517517,-0.18407732248306274,0.04767123609781265,-3.949608325958252,1.2634084224700928,0.6921097636222839
-0.19607090946768255,-0.03270427639168707,-0.0349113052837011,0.9794222971904389,-0.3917310874831021,-0.08422485154038974,-0.08797991669588831,-0.07775276899337769,0.3817889094352722,-0.9209732413291931,-0.06886909157037735,-0.09280567616224289,0.01602826453745365,-4.708983421325684,1.524634838104248,0.7356070280075073
-0.289369154598102,0.008496229197860233,-0.02800722267174099,0.9567701173437528,-0.5873960745171092,5.889537156187463e-05,-0.05851083876703345,4.902793807559647e-05,0.5541954040527344,-0.8323866128921509,-0.05314033105969429,-0.20687457919120789,0.09328059107065201,-4.822605133056641,1.7397130727767944,0.8800109624862671
-0.37131271516263953,0.043682449720577436,-0.024040566349030772,0.9271681361668414,-0.762372167751693,0.08742998050085402,-0.016786740639680886,0.06314881891012192,0.6906388998031616,-0.7204374670982361,-0.009161551482975483,-0.07082165777683258,-0.01740475557744503,-3.55163311958313,1.2782084941864014,0.3899615406990051
-0.40764119729197024,0.061249201273352503,-0.026542912206273434,0.9106990866434648,-0.8416274510645865,0.1353762639804678,0.002386768955829773,0.08991920948028564,0.7457283735275269,-0.660154402256012,0.056585438549518585,0.35604822635650635,-0.04232286289334297,-0.6340000629425049,0.3568476438522339,-0.08578551560640335
-0.4010555958265761,0.0609162595213869,-0.028853446246774824,0.9135706180254441,-0.8275866393564474,0.13065787074449686,-0.005701177292803471,0.08815893530845642,0.7363004684448242,-0.670887291431427,0.11506259441375732,0.37104377150535583,0.018971692770719528,1.3083691596984863,-0.25688350200653076,-0.10335782170295715
-0.3651996665298678,0.047815183885827436,-0.029978004643906868,0.9292169993797762,-0.7499009518129933,0.09164152670803442,-0.028412135899077005,0.06696544587612152,0.6815662384033203,-0.7286858558654785,0.04266892746090889,0.12021899223327637,0.08045993745326996,2.59145450592041,-0.8860504031181335,-0.2915719151496887
-0.30556705913254656,0.02128985301781384,-0.03316387390830477,0.9513546595577624,-0.6221915252780292,0.024911201028987466,-0.06168082397774393,0.02024083025753498,0.5828173756599426,-0.8123510479927063,0.017224883660674095,0.002831839956343174,0.01508092787116766,3.8589088916778564,-1.2998539209365845,-0.6184765100479126
-0.2232675681789031,-0.011256576366244473,-0.03885462600207204,0.9739175131380737,-0.4489431450560654,-0.04360981946752648,-0.08970656202113653,-0.03927590325474739,0.43401360511779785,-0.9000497460365295,0.008132398128509521,-0.01633423939347267,0.06454098969697952,4.685272693634033,-1.4292826652526855,-0.6372657418251038
-0.12984510375604869,-0.0464445411718442,-0.04419936355329927,0.9894593073720381,-0.25562200843916866,-0.10706483603302543,-0.10305310350758361,-0.10338810086250305,0.25284722447395325,-0.961966335773468,0.03238969296216965,0.0015662945806980133,0.07558982819318771,4.692607402801514,-1.4219528436660767,-0.688376784324646
-0.04968207633713931,-0.0756227337348904,-0.04854704301541127,0.9947141323523254,-0.09162455181005882,-0.15656270092857777,-0.10472484364606584,-0.1552698314189911,0.09149639308452606,-0.9836257696151733,0.0652914047241211,0.16540376842021942,0.03570261970162392,3.112368583679199,-0.9185875654220581,-0.3367185592651367
-0.012650917169439627,-0.08721717623226208,-0.04482038431285364,0.9951001227195735,-0.017360515768114374,-0.17564171454374655,-0.09154990303711966,-0.17471367120742798,0.01735963486135006,-0.9844662547111511,0.018755123019218445,-0.07428771257400513,0.055701930075883865,0.7338086366653442,-0.12419843673706055,0.2802060842514038
-0.018261937911991016,-0.08313204756904585,-0.03973498827330471,0.9955786576118801,-0.029760282185162554,-0.16784115566669697,-0.08228413359279405,-0.16698025166988373,0.029755881056189537,-0.9855111241340637,-0.0556425042450428,-0.2645847201347351,0.08800392597913742,-1.1972813606262207,0.3912639319896698,0.20469830930233002
-0.05852570118403223,-0.06977730561066514,-0.03873433307125821,0.995090828472323,-0.11130087695183531,-0.14480175434585216,-0.08589227254219524,-0.14340341091156006,0.11107120662927628,-0.9834117293357849,-0.0638142079114914,-0.2077595740556717,0.05669254809617996,-2.814549446105957,0.801888108253479,0.28331080079078674
-0.12719132230109556,-0.0464020707724233,-0.03643972755942399,0.9901219743128613,-0.2511190738532061,-0.10462335081397489,-0.08679114401456331,-0.101157046854496,0.24848806858062744,-0.9633384346961975,-0.07074826210737228,-0.17591731250286102,0.07608659565448761,-4.00014066696167,1.2112774848937988,0.5293052792549133
-0.21214766774428384,-0.015341088292117737,-0.03202085512929193,0.9765924490988411,-0.4261642196798576,-0.04784637299154148,-0.07590746798520559,-0.0435502752661705,0.4133811295032501,-0.9095160365104675,-0.05904092267155647,-0.14262448251247406,0.08776568621397018,-4.728681564331055,1.2725083827972412,0.5239167809486389
-0.3080827955985117,0.02405168798479039,-0.027568550331946804,0.9506558760339903,-0.6274564304965384,0.03551349576225226,-0.04645957435315685,0.028742967173457146,0.5870875120162964,-0.8090130090713501,-0.06142827495932579,-0.15421225130558014,0.09020207822322845,-4.91051721572876,1.8565218448638916,0.8131678700447083
-0.387069125345025,0.056465358370188984,-0.023119840810358054,0.9200298101178054,-0.7963970030561877,0.12329697600523506,0.0016732885777574703,0.0860016718506813,0.7148411870002747,-0.6939783096313477,0.010228978469967842,0.03393213450908661,-0.08028014004230499,-3.3249735832214355,1.042822241783142,0.3020065426826477
-0.4123499390575185,0.06784928464747272,-0.024072006158020305,0.9081765502430184,-0.8514546085062408,0.15756064874986175,0.018565682216561425,0.10338607430458069,0.7522395849227905,-0.6507280468940735,0.09854967892169952,0.4504372477531433,-0.14098665118217468,0.36502739787101746,0.10125118494033813,-0.04930173233151436
-0.3864041188506012,0.06308708930983781,-0.026300816163597446,0.9197936095441956,-0.7953984294168852,0.13718513414887168,0.0005308241121964742,0.09572871774435043,0.7141425013542175,-0.6934237480163574,0.07785758376121521,0.23289887607097626,0.06293346732854843,2.361560583114624,-0.5908520817756653,-0.18535327911376953
-0.32989596967976087,0.04032116084231621,-0.030159723895607705,0.9426735560146671,-0.6743638759527169,0.0719092599316249,-0.03874711961629748,0.056120242923498154,0.6244004964828491,-0.7790856957435608,0.030066899955272675,0.06708965450525284,0.010353676974773407,3.737004041671753,-1.1642646789550781,-0.5377114415168762
-0.24898542350196073,0.00947761703457158,-0.037634640835751305,0.9677294335621439,-0.5036373318488956,-0.00045375782578162515,-0.0778568464552694,-0.0003974116698373109,0.4826143682003021,-0.8758328557014465,-0.0003467779606580734,-0.07052543014287949,0.05252990126609802,4.753145217895508,-1.3325204849243164,-0.7712785005569458
-0.1521656214217853,-0.025972748175433897,-0.04652905625691009,0.9869175023200055,-0.3025264335753808,-0.06859250018832491,-0.1046813124023229,-0.06542615592479706,0.29793283343315125,-0.9523420929908752,-0.0017297789454460144,-0.05123354122042656,0.12883774936199188,5.104074478149414,-1.5553147792816162,-0.7652568817138672
-0.06110895362428098,-0.06157559567770509,-0.05307789555896163,0.9948151141076991,-0.11530293308713911,-0.13022982207021752,-0.11413487943330454,-0.128999724984169,0.11504760384559631,-0.9849482774734497,0.09008242189884186,0.1812717467546463,0.09945300221443176,3.7961790561676025,-1.3326911926269531,-0.5057558417320251
-0.014260616081502038,-0.0795302206968524,-0.05166987635393016,0.9953903291283221,-0.020172493432842414,-0.1605219141666852,-0.10534783771810692,-0.15980090200901031,0.020171117037534714,-0.9869431853294373,0.06565921753644943,0.0967164933681488,-0.03775889798998833,0.9014925956726074,-0.1101248562335968,0.24919269979000092
-0.018465368576958782,-0.07559233867641485,-0.044236314648317725,0.9959859566609538,-0.030099187193160355,-0.15287524505641684,-0.09107623159410773,-0.1522114872932434,0.030094632878899574,-0.9878896474838257,-0.0443597175180912,-0.16657352447509766,0.12368108332157135,-1.17655348777771,0.31922996044158936,0.3732580542564392
-0.05889143102967409,-0.06307095818512486,-0.03992002179394838,0.9954698771897881,-0.11245054525339938,-0.13147886820943328,-0.08757130546572257,-0.13027235865592957,0.11221368610858917,-0.9851077198982239,-0.03668885678052902,-0.1427992284297943,0.03172525018453598,-2.8086047172546387,0.7713234424591064,0.4036753475666046
-0.1276046309746811,-0.03877524942374634,-0.03636983519218484,0.9903993790624166,-0.2526168375764887,-0.08902728514628513,-0.0847242399221744,-0.08608787506818771,0.24993857741355896,-0.9644270539283752,-0.0432107113301754,-0.10765267163515091,0.0194845050573349,-4.039712429046631,1.282005786895752,0.48951059579849243
-0.2159458539640296,-0.004923689749725176,-0.033269827631890035,0.9758260161963344,-0.4346837075635797,-0.026439910114496118,-0.07400068874448651,-0.023978285491466522,0.4211235046386719,-0.9066863059997559,-0.030574491247534752,-0.09178735315799713,-0.008930515497922897,-4.976962089538574,1.6729390621185303,0.5145138502120972
-0.312491388415031,0.036597114764777325,-0.03136444077132456,0.9486970951357223,-0.6375332303753851,0.06205948456142982,-0.045610223730050956,0.04983691871166229,0.5952150225639343,-0.8020195960998535,-0.07167689502239227,-0.24216583371162415,0.08067071437835693,-4.8600616455078125,1.6533483266830444,0.44272488355636597
-0.38481154902575193,0.06303175328837542,-0.031464764397960684,0.9203027593448689,-0.7927025018397929,0.13116012778080002,-0.013397204668477564,0.09180058538913727,0.7122527956962585,-0.695894181728363,-0.05543697625398636,-0.1653406322002411,-0.05588628351688385,-2.493609666824341,0.7000775337219238,-0.051616370677948
-0.40192359180326076,0.06796246769457215,-0.03769694344534261,0.9123691789600634,-0.830886486783685,0.13944311074222035,-0.020997051764490147,0.09371113777160645,0.7385293245315552,-0.667677104473114,0.0559048056602478,0.4033629596233368,-0.11739815771579742,0.24003084003925323,0.03834333270788193,-0.26352155208587646
-0.3834926294169501,0.06158210238012153,-0.04069245957388086,0.9205896037074643,-0.7910479969008972,0.11714029346034911,-0.03939224647308717,0.0821731686592102,0.7110904455184937,-0.6982821226119995,0.06328948587179184,0.24176594614982605,-0.03364269435405731,1.7598754167556763,-0.4571109414100647,-0.19520148634910583
-0.33865882700682615,0.04345628830121901,-0.04539550165649972,0.9388083282960116,-0.6942599869866602,0.06621005940730057,-0.07267247185931783,0.05084707587957382,0.6398168206214905,-0.7668434977531433,0.009484764188528061,0.04938409850001335,0.002659054007381201,3.1298723220825195,-0.9262998104095459,-0.5715334415435791
-0.26968915870336285,0.015368961500630784,-0.05359073469272542,0.9613322127530843,-0.5470488389183316,0.0007536622307455121,-0.11116592484100403,0.0006436798139475286,0.5201689600944519,-0.854063093662262,0.005496005527675152,0.009119796566665173,0.010791607201099396,4.230621337890625,-1.1996760368347168,-0.6960805058479309
-0.18233203288176578,-0.017100989166596133,-0.059676396339074136,0.981275406922132,-0.3637644104162087,-0.05923163553601934,-0.13237731417757911,-0.055323388427495956,0.3557947874069214,-0.9329251646995544,0.020595155656337738,0.04304206371307373,0.07615074515342712,4.79005765914917,-1.3115408420562744,-0.5092870593070984
-0.0929135659154188,-0.049234148125762316,-0.05957583060396193,0.992670121388286,-0.17956207952370784,-0.11082220099872711,-0.12987438770371193,-0.10881733149290085,0.17859868705272675,-0.9778861403465271,0.09978999942541122,0.14647293090820312,0.1121634766459465,4.147269248962402,-1.2339062690734863,-0.12169045209884644
-0.03432631321686981,-0.07140294252703744,-0.052598331363203125,0.9954681273900945,-0.06086772785959655,-0.14656433158779333,-0.11004729145885943,-0.14576970040798187,0.06083013862371445,-0.987446665763855,0.07827004045248032,0.15252713859081268,-0.0042113312520086765,1.6024502515792847,-0.3979073166847229,0.3900929391384125
-0.028620467411089978,-0.0739604106264736,-0.04261460773339674,0.9959392129197439,-0.050726655919389116,-0.15052006021051892,-0.08935030124113275,-0.1497594267129898,0.050704892724752426,-0.987421452999115,-0.03951093927025795,-0.16609977185726166,0.12089970707893372,-0.7910603284835815,0.09042775630950928,0.4213677644729614
-0.06280205892753256,-0.06591539591672889,-0.03767553434261991,0.9951340867057797,-0.12031621631118111,-0.13734266034760417,-0.08396861904010954,-0.13592150807380676,0.1200261265039444,-0.9834221005439758,-0.04263156279921532,-0.22112314403057098,0.04676998406648636,-2.4935011863708496,0.619343638420105,0.360675185918808
-0.12573624791994095,-0.04434197938984575,-0.03508802365063967,0.9904509866494177,-0.24850941309744604,-0.09989034141806066,-0.08330935073477155,-0.09666077792644501,0.24595941603183746,-0.9644483923912048,-0.04527583345770836,-0.18866726756095886,0.05488869547843933,-3.7392938137054443,1.1863727569580078,0.4394225478172302
-0.208129584485226,-0.013322927411832946,-0.031547260496334405,0.9775015755145501,-0.4181312310340152,-0.04288476290178289,-0.07362433573622018,-0.03917819634079933,0.406053364276886,-0.9130091667175293,-0.03188547492027283,-0.14659693837165833,0.044595275074243546,-4.650356292724609,1.5546400547027588,0.6406248211860657
-0.3015664155045536,0.02470530717203338,-0.02358295235953094,0.9528332822059968,-0.6136437990924942,0.0401994588857263,-0.03675278023225479,0.032856427133083344,0.575850248336792,-0.8168947100639343,-0.015223070979118347,-0.15306535363197327,0.062254734337329865,-5.000330448150635,1.580052375793457,0.9407253861427307
-0.38515200263740723,0.058752273344140724,-0.0136518771974682,0.9208799307957413,-0.7908647496169902,0.1393688279236914,0.028605650823061442,0.09769148379564285,0.7109615802764893,-0.696412205696106,-0.03217758983373642,-0.1461029350757599,-0.006575617007911205,-3.5016632080078125,0.9837159514427185,0.5695508718490601
-0.4166909932902654,0.06562166954488004,-0.011627109745853917,0.9066020611006548,-0.8588194614885187,0.16807997034791147,0.051459970180461244,0.10929565876722336,0.7570717334747314,-0.6441248655319214,0.08219518512487411,0.36226385831832886,-0.1759434938430786,-0.08004187792539597,-0.22240279614925385,-0.2507929503917694
-0.39815401524245503,0.055594923192596526,-0.014513137793233063,0.9155173740018505,-0.8192699078027951,0.1325572699752276,0.025922343138223836,0.09023930877447128,0.7306475043296814,-0.6767652034759521,0.08338591456413269,0.30109772086143494,-0.06565036624670029,1.9942216873168945,-0.6178689002990723,-0.32150575518608093
-0.34886266940118016,0.03337290088940376,-0.020018668369023385,0.9363655829961326,-0.7137356036015133,0.06424520350147572,-0.018792029070604975,0.0485309399664402,0.6546621322631836,-0.754362165927887,0.002709902822971344,0.0480656698346138,-0.0032043075188994408,3.2881267070770264,-1.1380870342254639,-0.7246588468551636
-0.2798202179315272,0.003989030766755087,-0.030399555152421976,0.9595627615490139,-0.5671763318240263,-0.011094764467999424,-0.06657361069106987,-0.009357364848256111,0.5372526049613953,-0.8433694839477539,-0.01692565716803074,-0.02628360316157341,-0.0038099815137684345,3.9905433654785156,-1.1670176982879639,-0.9842380881309509
-0.20455605045364827,-0.0251942738237953,-0.04380861960846618,0.9775494878935342,-0.4090303690614005,-0.07328566946880342,-0.10477661406826681,-0.06717992573976517,0.3977198302745819,-0.9150441288948059,0.01743614859879017,0.0381927490234375,0.06056002527475357,3.6631317138671875,-1.0109888315200806,-0.982577383518219
-0.1415707482321764,-0.049870084124039864,-0.056648149183426914,0.9870469886970492,-0.2773666162887741,-0.11932022854904518,-0.131331353057225,-0.1144876629114151,0.2738238275051117,-0.9549413919448853,0.05544517934322357,0.14579327404499054,0.08857327699661255,2.5821847915649414,-0.8057987689971924,-0.8200364112854004
-0.11130283733242358,-0.06147613967220809,-0.06323904950677046,0.9898652842256384,-0.21420866313295256,-0.13941063765681894,-0.14261252566059948,-0.13578355312347412,0.21257422864437103,-0.9676647186279297,0.08376021683216095,0.18448317050933838,0.028289293870329857,0.3875892758369446,0.02712225914001465,-0.09871432185173035
-0.1238620617091812,-0.05285504721469649,-0.05932799956258803,0.9891131213823865,-0.24108420141627016,-0.12311866711613297,-0.13475033646829135,-0.11925620585680008,0.23875558376312256,-0.9637290835380554,0.001367717981338501,-0.05967172607779503,0.12422843277454376,-1.4971600770950317,0.5206130146980286,0.5103991627693176
-0.16705193478049585,-0.034753168982673964,-0.05151184809825467,0.983988088839619,-0.33119554015987374,-0.09064735922374671,-0.11976450125737742,-0.08560370653867722,0.3251737952232361,-0.9417717456817627,-0.01669318601489067,-0.13640815019607544,0.06801504641771317,-2.829982280731201,0.900603175163269,0.6641005277633667
-0.2324331302621797,-0.007276786959260694,-0.04275847817556814,0.9716448683715824,-0.46795561102460204,-0.03812483404165006,-0.09704366196201536,-0.03401787206530571,0.4510625898838043,-0.8918437957763672,-0.06009999290108681,-0.16437949240207672,0.06232713907957077,-3.820992946624756,1.197028398513794,0.8069552183151245
-0.3096469050534092,0.023832139073244243,-0.0327737916777146,0.9499878168475622,-0.630914823387082,0.030945175153779723,-0.05887115330388828,0.024983879178762436,0.5898836851119995,-0.8071016669273376,-0.04614027589559555,-0.1679999828338623,0.0353006049990654,-4.136037349700928,1.2432974576950073,0.8059948682785034
-0.37636433013611387,0.048155299493060515,-0.02432856244881122,0.9248995420593539,-0.7733572150882503,0.09905490569001063,-0.012235423483682674,0.07076482474803925,0.6985414624214172,-0.7120619416236877,-0.04408612847328186,-0.09648750722408295,-0.10871879011392593,-2.740574359893799,0.6044187545776367,0.4719001352787018
-0.39796720869691316,0.05439722804301135,-0.02197611692823797,0.9155217716557509,-0.8199125513712734,0.12064114891958656,0.00448113112675642,0.0821121409535408,0.7310861349105835,-0.6773260831832886,0.03173154592514038,0.2558837831020355,-0.23814740777015686,0.32017627358436584,-0.03995702415704727,-0.099424347281456
-0.37598468826266535,0.04859941489693872,-0.024174743446354317,0.9250347191980188,-0.7725275076300737,0.1003340540296458,-0.011422010276068135,0.07173362374305725,0.6979475021362305,-0.712547242641449,0.033993154764175415,0.16452741622924805,-0.09855619817972183,1.953649640083313,-0.43612390756607056,-0.2296144962310791
-0.32942445691504474,0.03142494168861147,-0.02924250953082927,0.9432057178749589,-0.6729147000339495,0.0511905695017285,-0.044079165103267724,0.04001397639513016,0.6232678890228271,-0.7809840440750122,-0.011330051347613335,-0.0059396056458354,-0.060879897326231,3.0158562660217285,-0.8541651368141174,-0.5906869173049927
-0.26724677346771436,0.008143923482934263,-0.03865194446734582,0.9628182227244673,-0.5412989565181973,-0.005807204161860763,-0.0818573564338587,-0.004976974334567785,0.5152496695518494,-0.857025682926178,-0.013661814853549004,-0.05527500435709953,-0.008544113487005234,3.522454261779785,-0.8928914070129395,-0.7818514108657837
-0.20044238817036036,-0.01561003590764582,-0.049595461662086095,0.9783248661431967,-0.4013345219358908,-0.05480550902879759,-0.1124522012631002,-0.05042542889714241,0.39064714312553406,-0.9191583395004272,0.0013710428029298782,-0.043958839029073715,0.06587841361761093,3.3170230388641357,-0.8499051928520203,-0.768522322177887
-0.14465001779818965,-0.036416690875352854,-0.059893118436462126,0.9869970421382679,-0.2850193920662761,-0.0930983582629634,-0.1345831374887845,-0.08921340107917786,0.28117603063583374,-0.9555004239082336,0.04387694597244263,0.11252624541521072,0.08811315149068832,2.1751372814178467,-0.6130313873291016,-0.6018984913825989
-0.1218656086179391,-0.044554828656469245,-0.06364675306732488,0.9895012972202168,-0.23773384471808395,-0.10689093207528245,-0.14124511022882902,-0.10368680953979492,0.23550079762935638,-0.9663273096084595,0.05368313565850258,0.040962375700473785,0.08067559450864792,0.17009636759757996,0.031085994094610214,0.013120507821440697
-0.1351736802986183,-0.03858744738363123,-0.060800545301650154,0.9882016439838355,-0.2655763239074731,-0.09621808826695594,-0.13576000375897754,-0.09270161390304565,0.2624654173851013,-0.9604781866073608,0.0056625790894031525,-0.09785028547048569,0.1132122278213501,-1.4101163148880005,0.43031778931617737,0.3361160159111023
-0.1736112007140852,-0.025040299265242292,-0.05605769488369714,0.9828986244619871,-0.3452979097980085,-0.07306231604654731,-0.12668912039298852,-0.06868863105773926,0.3384769856929779,-0.9384642839431763,-0.02189265936613083,-0.1268986612558365,0.1226312592625618,-2.5152699947357178,0.5732818841934204,0.42871546745300293
-0.2322768880031836,-0.005212260032159501,-0.04993323601247491,0.9713532393800489,-0.46757766886363133,-0.037338075645686836,-0.11161408632242427,-0.03332255780696869,0.450725257396698,-0.8920405507087708,-0.017465442419052124,-0.1518983393907547,0.1192336156964302,-3.475872278213501,0.8502609729766846,0.5746381282806396
-0.3070452261485086,0.01864123533115066,-0.04293134256479112,0.9505433623319143,-0.6252749064512583,0.011192700669742076,-0.08665082796175066,0.009074881672859192,0.5853201746940613,-0.8107514977455139,0.03498123958706856,-0.04149577021598816,0.01071239449083805,-4.29596471786499,1.1009478569030762,0.6682158708572388
-0.37759558531720977,0.04143644729558136,-0.03473162546002919,0.9243908164813124,-0.7767568047211719,0.07069625975236278,-0.04617341783576802,0.05037792772054672,0.7009700536727905,-0.7114092111587524,-0.022159039974212646,-0.06044529750943184,-0.024237914010882378,-3.0063202381134033,0.3928544521331787,0.4046168029308319
-0.41219148476600354,0.04913417427603985,-0.029041475817891047,0.9093078521797084,-0.851806996643597,0.09948445862147197,-0.018691413049564436,0.06541488319635391,0.7524716854095459,-0.6553680300712585,0.04529353231191635,0.2679012417793274,-0.13599643111228943,-0.6677659153938293,-0.07133370637893677,0.22061771154403687
-0.4072916027061724,0.045491398320263846,-0.02367893164158494,0.911857169486714,-0.8404417686054277,0.09559090913940937,-0.009184310176791277,0.06367485225200653,0.7449378371238708,-0.6640881896018982,0.09723737835884094,0.3601838946342468,-0.13430246710777283,0.9850960969924927,-0.349288672208786,0.18002139031887054
-0.3812957926806788,0.03716874390997366,-0.01876325024437017,0.9235150546418056,-0.783353660542312,0.07677147939673398,-0.008908039096181363,0.0543430931866169,0.7056595683097839,-0.7064640522003174,0.018628286197781563,0.05351729318499565,0.006616450846195221,1.7265708446502686,-0.604824423789978,0.04662701487541199
-0.3477728627484711,0.023801798958517296,-0.01585123356816216,0.9371426569374073,-0.7109846091258677,0.044339760792278186,-0.017361505695664997,0.033586107194423676,0.6525800824165344,-0.7569750547409058,-0.011981591582298279,-0.07828780263662338,0.03161061182618141,1.854595422744751,-0.6961605548858643,-0.1002800464630127
-0.3141550097385907,0.009097509453885988,-0.01387993062748708,0.9492266743696416,-0.6393340781057361,0.0106548674987662,-0.025715628160274243,0.008550301194190979,0.5966611504554749,-0.8024477362632751,-0.015521666035056114,-0.07181968539953232,0.04677063599228859,1.6843233108520508,-0.6932972073554993,-0.080494225025177
-0.2867519804692416,-0.00271992484532845,-0.009114205157622507,0.9579576675041779,-0.5815776946206506,-0.012492206046874808,-0.02276644874460276,-0.01043817400932312,0.5493428707122803,-0.8355318307876587,-0.008936908096075058,-0.019928906112909317,0.05303012207150459,1.2000559568405151,-0.5503072142601013,0.23936229944229126
-0.2693286981824994,-0.009176113327120289,0.002398843163918473,0.9630016236479094,-0.5454138861141007,-0.019162275666449725,-0.0003773503588076277,-0.01638106442987919,0.5187719464302063,-0.854755699634552,0.0041860127821564674,0.002299455227330327,0.01660391315817833,0.6125167608261108,-0.3308742046356201,0.6548497676849365
-0.2640988493478311,-0.007595183336077158,0.019091280597179624,0.9642767981751738,-0.5347416700349354,-0.005304239114960101,0.03813893743634954,-0.004563743714243174,0.5096187591552734,-0.8603882193565369,-0.00501500628888607,-0.021758535876870155,-0.014848785474896431,-0.06164813041687012,0.04847975820302963,0.9506757855415344
-0.2726959231254944,0.0018124118084644888,0.037608995965521926,0.9613632954893107,-0.5517559075960117,0.028181581976543277,0.08617970074622597,0.023996414616703987,0.5241833329200745,-0.8512673377990723,-0.038977254182100296,-0.08524738252162933,-0.01972208172082901,-0.7885305285453796,0.36750203371047974,1.055861473083496
-0.2936355093087969,0.015884475654195977,0.054381716746704604,0.9542372270805678,-0.5927791959192944,0.07512801650538761,0.13680905555750503,0.062251921743154526,0.5586681962013245,-0.8270517587661743,-0.05216587334871292,-0.10785318166017532,-0.04347816854715347,-1.329302191734314,0.6181503534317017,0.9321017265319824
-0.3208439982501284,0.03216574506313982,0.0664153032384145,0.9442529533680204,-0.6455566827740451,0.12976754389142572,0.18389968005689705,0.10336309671401978,0.6016431450843811,-0.792048990726471,-0.07806982845067978,-0.16497443616390228,0.014098118059337139,-1.3396129608154297,0.580306351184845,0.6402372121810913
-0.3417443625271619,0.041085517107780835,0.07255844331101012,0.936086644701965,-0.6865110374716359,0.1643042122639379,0.21355418454684846,0.1265120804309845,0.633842408657074,-0.7630455493927002,-0.025416526943445206,-0.07036756724119186,-0.037435587495565414,-0.7643911242485046,0.2626091241836548,0.20642706751823425
