QuaternionX,QuaternionY,QuaternionZ,QuaternionW,AttitudePitch,AttitudeRoll,AttitudeYaw,GravitationalAccelerationX,GravitationalAccelerationY,GravitationalAccelerationZ,AccelerationX,AccelerationY,AccelerationZ,RotationX,RotationY,RotationZ
-0.06312875103090508,-0.029932164602486197,-1.1552942102313744e-18,0.997556495377631,-0.126284382248828,-0.06023383527218948,-0.0038095056349464183,-0.059718094766139984,0.12594908475875854,-0.9902376532554626,-0.13180464506149292,0.01554528996348381,0.10683548450469971,0.15127700567245483,-2.3953611850738525,-0.22724400460720062
-0.06117827850049057,-0.055876927319272504,0.0012836459567838877,0.9965608226618664,-0.12238448647987367,-0.11228635477211268,-0.004310701637056598,-0.11121249198913574,0.12207930535078049,-0.9862699508666992,-0.028091639280319214,-0.015018368139863014,-0.3302890658378601,0.5478060245513916,-0.7947600483894348,0.12152324616909027
-0.052767537210640356,-0.07062819539818027,0.0035759506788850884,0.9960996306513091,-0.10582599064744234,-0.14159013094110862,-0.00033160065152659264,-0.1403280794620514,0.10562867671251297,-0.9844544529914856,-0.0054279714822769165,-0.13675111532211304,-0.7085651755332947,0.4462243318557739,-0.6433395147323608,-0.08531910181045532
-0.045668556996785625,-0.07845460542967458,0.0035006271469432693,0.9958650413229626,-0.0916369164270859,-0.15724490555300782,-0.00019432819146566078,-0.1559406965970993,0.09150882065296173,-0.9835184812545776,-0.02286827564239502,-0.04084276035428047,-1.0754536390304565,0.12713055312633514,0.16902635991573334,-0.004685070365667343
-0.04810587691739665,-0.06666224571297118,0.002351680066664485,0.9966125391108057,-0.0963483747998325,-0.13366230849962438,-0.0017343083291707314,-0.13264663517475128,0.09619948267936707,-0.9864839315414429,0.009399019181728363,-0.09368333220481873,-0.713098406791687,-0.3396646976470947,1.108661413192749,-0.03573974221944809
-0.051828927358493135,-0.030904846357395783,-1.3586226597096298e-05,0.9981776653005483,-0.1036536263422448,-0.062071250574493794,-0.0032480919437449037,-0.06169850751757622,0.10346821695566177,-0.9927172660827637,-0.03136584162712097,-0.23017776012420654,0.4907204806804657,0.0828380286693573,1.8078975677490234,-0.020144492387771606
-0.04708141197491166,-0.009252735691342702,-0.006384814931518212,0.9988277890501288,-0.09407298321993902,-0.019170926539591782,-0.013686868187337017,-0.01908503845334053,0.09393439441919327,-0.9953954219818115,-0.06844399869441986,-0.16349491477012634,1.0745055675506592,0.23016193509101868,0.019337967038154602,-0.3408806025981903
-0.0402807537087665,-0.008662972909503075,-0.012996798600698597,0.9990663055631416,-0.0803475281185279,-0.018417264592196676,-0.02675673209593149,-0.01835685968399048,0.08026120811700821,-0.9966048002243042,0.07904684543609619,-0.2628493905067444,0.8603911399841309,0.6394704580307007,0.5194190740585327,-0.3726070523262024
-0.02860316945349538,-0.011413862570918795,-0.023651277624543353,0.9992459077899192,-0.05665359650484043,-0.024204707214647864,-0.04801528295314689,-0.024163564667105675,0.05662339925765991,-0.998103141784668,-0.08424551039934158,-0.16989775002002716,0.4880073368549347,0.09184122830629349,-0.8221479654312134,-0.7898009419441223
-0.027581495107282843,-0.017621670364078773,-0.04277105208207506,0.9985486546235337,-0.05360119804537394,-0.037614447888471306,-0.0866225564763297,-0.037551622837781906,0.05357563495635986,-0.9978574514389038,-0.21930958330631256,-0.16914576292037964,0.0695825070142746,0.5589991807937622,-0.01852281391620636,-0.9878534078598022
-0.011084016984702792,-0.025866531748140294,-0.06584875203428538,0.997432754747769,-0.01870565635667288,-0.05309421551810788,-0.13234187541709802,-0.05306004732847214,0.018704667687416077,-0.9984161257743835,-0.23417291045188904,0.06061175465583801,-0.5052294135093689,0.68019700050354,-0.26337504386901855,-1.2468702793121338
-0.0061117944673146785,-0.04405623276745714,-0.0890930595603006,0.9950297445560365,-0.004312638803618944,-0.08888136583484145,-0.17879170283697332,-0.08876362442970276,0.004312724806368351,-0.9960433840751648,-0.4684962332248688,0.3584006726741791,-1.343374252319336,-0.17419198155403137,-0.14633554220199585,-0.8298788070678711
-0.011115730328561496,-0.04678426730878857,-0.10270477185682954,0.9935489202821407,-0.01247843256756528,-0.09540025346285268,-0.20660724162901287,-0.0952482596039772,0.012478205375373363,-0.9953753352165222,-0.38256126642227173,0.1912243515253067,-0.4807382822036743,-0.5050855875015259,-0.021038129925727844,-0.5707072019577026
-0.02187249535560568,-0.05037996376080159,-0.11228846563994996,0.9921566700740578,-0.032093215572220495,-0.10512927191422314,-0.22708190163402198,-0.10488175600767136,0.03208779916167259,-0.9939668774604797,-0.10774696618318558,0.03803820535540581,-0.30239158868789673,-0.4973253607749939,0.1990315020084381,-0.3071118891239166
-0.017381049611616517,-0.027258993661317413,-0.1187172876735399,0.9924017368250094,-0.028029410123833125,-0.058286486603126186,-0.2389380988564431,-0.058230675756931305,0.028025833889842033,-0.997909665107727,0.01941162347793579,-0.018870610743761063,0.7187802791595459,0.6334947943687439,1.8632179498672485,-0.25083407759666443
0.0036684632194017622,-0.01418212418553552,-0.12087019726370034,0.9925603064200428,0.010710939049632955,-0.02727135572119769,-0.2422130107904816,-0.027266481891274452,-0.010710638016462326,-0.9995708465576172,-0.07373055815696716,-0.12105482071638107,1.12360680103302,1.0613343715667725,-0.35754770040512085,-0.11570441722869873
0.011143262706826213,-0.026401352979780156,-0.12346235886042611,0.9919354358651506,0.028629851936061292,-0.04966608946076511,-0.2469474501496083,-0.049625396728515625,-0.028625844046473503,-0.9983575940132141,-0.09344398975372314,0.18849456310272217,0.5144992470741272,-0.5523887276649475,-0.9143267869949341,-0.039332032203674316
-0.0056575161491327205,-0.04575073331136892,-0.11894936045360767,0.9918296504014285,-0.000338543599794536,-0.09223049234813198,-0.23873396543649392,-0.09209985285997391,0.00033863901626318693,-0.9957497119903564,0.2696434557437897,-0.3046884536743164,-0.4235907196998596,0.3848446011543274,0.9463184475898743,0.4007396101951599
0.010714373106219898,-0.05225945779886934,-0.11549921970410505,0.9918740775639766,0.03333264319188555,-0.10142464483504217,-0.23015478487211388,-0.10119466483592987,-0.033326372504234314,-0.9943082928657532,-0.24876649677753448,0.1868273913860321,-0.4570554494857788,0.1567777395248413,-1.6971619129180908,0.27431589365005493
0.00552674915803476,-0.0669319991945,-0.11283716072761159,0.991341226340396,0.02606557353073173,-0.1318843132560593,-0.22494853577199989,-0.13145771622657776,-0.02606252394616604,-0.9909791350364685,0.2010999321937561,0.045310650020837784,-1.8217179775238037,-0.13271892070770264,1.9345070123672485,0.14612799882888794
0.010204285754538849,-0.029845867733335415,-0.11534737341107336,0.9928242972378821,0.027150746197950347,-0.05696110973711018,-0.23055149333277522,-0.05690939724445343,-0.027147313579916954,-0.9980102181434631,0.09589695185422897,0.01932412199676037,-0.5022566318511963,-0.2117639183998108,1.7812280654907227,-0.22350405156612396
0.006613188759338304,0.0042880907407115134,-0.11919324285236572,0.9928399081527643,0.012109748530988274,0.010092181346599779,-0.2390231793464563,0.010091196745634079,-0.012109356001019478,-0.9998757839202881,0.11979925632476807,-0.06929562985897064,0.20115730166435242,-0.5805378556251526,1.7761120796203613,-0.22402019798755646
0.008497817653143343,0.04446713731886577,-0.12793336153719834,0.9907490171135137,0.005460775404721072,0.09041031913703754,-0.257081696391631,0.0902857705950737,-0.00546065391972661,-0.9959009289741516,-0.11868360638618469,-0.09267707914113998,1.3648347854614258,0.382548987865448,1.0941247940063477,-0.6067183613777161
0.015907280606771122,0.032419765027662625,-0.14110441322422826,0.9893359271243372,0.02232799975772917,0.06870841184531006,-0.2841072670876502,0.0686371698975563,-0.022326050326228142,-0.9973918199539185,0.0064137279987335205,-0.036995697766542435,0.8284703493118286,0.4568184018135071,-0.737227737903595,-0.6561324000358582
0.0195883288404228,0.028882694297959748,-0.15380593756129435,0.9874845771179052,0.029806098602361417,0.06313799880301423,-0.309968874762052,0.0630679503083229,-0.029801594093441963,-0.9975641965866089,-0.06574758142232895,0.032067976891994476,0.797754168510437,0.07553459703922272,-0.060762204229831696,-0.7434059977531433
0.012763113259879113,0.008757502458831301,-0.16977720657096493,0.9853609811506244,0.02218071771643057,0.021599365933524507,-0.3414880510905083,0.021592291072010994,-0.022178810089826584,-0.9995208382606506,-0.18855403363704681,0.008606180548667908,-0.5223365426063538,-0.06706159561872482,0.10740414261817932,-0.5992151498794556
0.028789666871823185,-0.0052272672779760795,-0.1821969124101578,0.9828266537208783,0.058528698168220795,0.00021615173446329426,-0.3666056991519741,0.00021569743694271892,-0.05849519744515419,-0.9982876777648926,-0.39084047079086304,0.1781783401966095,-0.7884960174560547,0.5043375492095947,-1.3437371253967285,-0.8583206534385681
0.023265042060720432,-0.025554561046825092,-0.19789476608243026,0.9796139961696213,0.055724584534671516,-0.04093410247890833,-0.39751989087536965,-0.04085923358798027,-0.05569566413760185,-0.997611403465271,-0.5763615369796753,0.3353947103023529,-1.366295576095581,-0.3551657199859619,-0.3801664113998413,-0.6475654244422913
0.006517216151866353,-0.034290553208454595,-0.20781683423504613,0.9775448151466827,0.026997329547996697,-0.06440028851810352,-0.41807448126352864,-0.06433241814374924,-0.026993967592716217,-0.997563362121582,-0.25385040044784546,0.3413001000881195,-0.6100176572799683,-1.159489631652832,-0.30559852719306946,-0.23007702827453613
-0.012185767522131566,-0.029090252518009105,-0.20936127238581864,0.977329695943665,-0.011638543121460617,-0.06200791669420638,-0.4224175633353658,-0.06196407601237297,0.011638360098004341,-0.998010516166687,-0.0007416270673274994,0.1664835512638092,0.12135450541973114,-0.8210907578468323,1.2230687141418457,0.31848952174186707
-0.010589513922171142,-0.005710199806382732,-0.20338507420091614,0.979024982262857,-0.018413098989009793,-0.015491600281206993,-0.40980077721173663,-0.015488441102206707,0.018412139266729355,-0.9997105002403259,-0.12194275856018066,-0.09267321228981018,1.4133284091949463,0.38430631160736084,-0.2180611789226532,0.2796550691127777
-0.006064718905883847,-0.028171519359001466,-0.20032643136003947,0.9793054253500315,-0.0005914244116302074,-0.05763881016306333,-0.40356918160197397,-0.05760697275400162,0.0005915065994486213,-0.9983391761779785,-0.01708187907934189,0.12812703847885132,0.7539170980453491,0.5670430660247803,-0.7590348124504089,0.3462974727153778
-0.007367034575895228,-0.04108884122735273,-0.1918489856695705,0.9805363436011751,0.0013184151130966903,-0.08350199656947987,-0.38637759822500295,-0.08340500295162201,-0.0013183308765292168,-0.9965148568153381,-0.22276780009269714,0.33062323927879333,0.7463112473487854,-0.571678638458252,-2.589970588684082,0.5523183941841125
-0.02687731471064782,-0.07659243710797385,-0.17836263221256035,0.980611101208108,-0.025392657693106935,-0.16054288930288738,-0.36188747122150355,-0.15980267524719238,0.025390012189745903,-0.9868224263191223,-0.0718197450041771,-0.3493139147758484,-0.2999063730239868,1.2498290538787842,-0.020010799169540405,0.284789115190506
-0.005550131299831772,-0.09676394853680134,-0.17632330340887103,0.979548967803261,0.02325232259280472,-0.19277077006363966,-0.35394655790334717,-0.1915273517370224,-0.023250140249729156,-0.9812118411064148,-0.17608888447284698,0.011104241013526917,-1.1386175155639648,0.7712891101837158,-2.0352139472961426,-0.48397594690322876
0.0030932722548955584,-0.08545835092283047,-0.17718205650956903,0.9804559907096844,0.036357016470460586,-0.1673705784037769,-0.35451879778415524,-0.16648022830486298,-0.036348920315504074,-0.9853745698928833,0.09976449608802795,0.22363129258155823,-1.1629279851913452,0.32634633779525757,2.309723138809204,0.03586643189191818
0.010503769471100632,-0.0447681360947605,-0.1801182129639387,0.9825696334274168,0.036776772906983474,-0.08434873368547746,-0.3610489715828479,-0.08419185876846313,-0.03676839545369148,-0.9957709908485413,0.009533047676086426,0.2750265598297119,-0.07334529608488083,-0.619230329990387,1.865394115447998,0.15095913410186768
0.0018119947171462366,-0.00536106879898579,-0.1747120475451391,0.9846033555639608,0.005441505625110554,-0.009924207873324794,-0.35120531646827763,-0.009923980571329594,-0.0054413918405771255,-0.9999359250068665,0.14122098684310913,0.017259344458580017,0.7003557682037354,-0.6518950462341309,2.7222790718078613,0.26602187752723694
0.0009459045784973042,0.0171169854096909,-0.17662639869636143,0.9841287614728138,-0.004184851391147604,0.034031645271508,-0.35509736805608755,0.034024693071842194,0.004184925463050604,-0.9994122385978699,-0.1417357176542282,-0.182885080575943,1.2204785346984863,0.140470489859581,-0.6683030724525452,-0.4010918140411377
0.009801257263990459,-0.0048131497517124285,-0.18614020464522127,0.9824625959036649,0.021052133658518223,-0.0058099832350959136,-0.3744259024773685,-0.005808747373521328,-0.02105049230158329,-0.9997615218162537,0.07241091132164001,0.009114719927310944,0.9030309915542603,1.1959290504455566,-0.721225380897522,-0.36543363332748413
0.024094324873316097,-0.008544421004364085,-0.19693537388182686,0.9800832053159547,0.05061589374791972,-0.007267809157094837,-0.3964095862338623,-0.0072585237212479115,-0.05059419944882393,-0.9986929297447205,0.06657576560974121,0.15741829574108124,0.9932084083557129,0.5002684593200684,0.09188700467348099,-0.6956397294998169
-0.012820439890580959,0.05221198764939043,0.2170919806270929,-0.9746695574787794,0.04767905525730747,-0.09647147314597881,-0.43601104075917224,-0.09621252119541168,-0.047660909593105316,-0.9942190647125244,0.3142988085746765,-0.16661813855171204,-2.065070390701294,-0.5007440447807312,2.3231873512268066,-0.471763551235199
-0.042247712759012,0.046943965542885754,0.22953216668349258,-0.9712499416924594,0.10380278979250203,-0.07224559609841386,-0.4603828492756578,-0.07179431617259979,-0.1036163941025734,-0.9920228123664856,-0.18514351546764374,0.3205578625202179,-0.31959259510040283,0.6540842056274414,-2.2797391414642334,-0.9617323279380798
-0.027296072831245733,0.06524378110639736,0.24787770626540193,-0.9662064683217952,0.08519526566608816,-0.11319701927323612,-0.49743269928332046,-0.11254584044218063,-0.08509216457605362,-0.9899963140487671,-0.3196934759616852,0.6534308791160583,-0.9569118022918701,-0.7024582624435425,0.22916167974472046,-0.01017821580171585
0.0017772773125430718,0.06706477297313261,0.24591958437116251,-0.9669657909275378,0.029552250783810154,-0.1310042515246384,-0.49614384063872347,-0.13057290017604828,-0.02954787388443947,-0.9909983277320862,-0.1622951179742813,0.26523926854133606,-0.38690313696861267,-1.6627209186553955,-0.671596884727478,0.4733700752258301
0.0249757371134567,0.06219376742073151,0.24149094916621763,-0.9680859019694854,-0.018319878857892522,-0.1328937037946939,-0.49014478190760385,-0.13248072564601898,0.01831892691552639,-0.9910162687301636,0.036851417273283005,0.2238246202468872,0.49393123388290405,-0.8502367734909058,1.1345901489257812,0.8821316361427307
-0.03501519507121834,-0.05260960963606802,-0.22200502045234177,0.9729954132366855,-0.04479503288093288,-0.11831920236959423,-0.45130639826249297,-0.1179249957203865,0.044780127704143524,-0.9920123219490051,-0.1885432004928589,-0.1695883572101593,1.0773687362670898,0.16147840023040771,-1.4316202402114868,0.6102693676948547
-0.03231867963941333,-0.07863522388823696,-0.2119857857574811,0.9735677190549221,-0.02959406659187939,-0.16767327482686106,-0.43127660257487255,-0.16681571304798126,0.029589824378490448,-0.985543966293335,0.004181310534477234,0.008569139987230301,0.8484545946121216,1.19840407371521,-1.3982163667678833,0.5412319898605347
0.028245217236633736,0.11988229645935367,0.20792973109003918,-0.9703585705994665,-0.004961810277096718,-0.2469077651688711,-0.4227940168358022,-0.24440373480319977,0.004961870145052671,-0.9696608781814575,-0.10654135048389435,0.22839173674583435,-0.6707484722137451,-0.3383169174194336,-1.8062347173690796,0.2004600614309311
0.021174542091845976,0.12725254342020734,0.2014442163593004,-0.9709680149576803,0.010149145807742966,-0.258530786929109,-0.40781147025554404,-0.25564733147621155,-0.010148889385163784,-0.9667168259620667,-0.06942375004291534,0.08948652446269989,-0.2268199771642685,0.9055231809616089,-0.9971722364425659,0.2491418868303299
0.010773675529713474,0.14611739199547186,0.19907594402491813,-0.9689698762212395,0.03730683475035667,-0.29177892519099013,-0.39978081044253544,-0.28745633363723755,-0.03729809820652008,-0.9570672512054443,0.01210242509841919,-0.010537825524806976,-1.8243465423583984,0.7205020785331726,0.3472551703453064,-0.6282328367233276
-0.013845070565335104,0.11042244961553,0.20470235237215284,-0.9724774175275389,0.07219821416105901,-0.21121146502482444,-0.4072776642420739,-0.20909851789474487,-0.07213541865348816,-0.9752303957939148,0.21573887765407562,0.34624990820884705,-0.37137532234191895,0.41531625390052795,1.8786262273788452,-0.43517670035362244
-0.024558447698941412,0.07523986934780638,0.20707926347826144,-0.9751175259043176,0.07913855941414365,-0.1374252574730787,-0.41306020834658524,-0.13656441867351532,-0.07905589044094086,-0.9874716997146606,0.130904421210289,0.08787744492292404,0.09882153570652008,0.4439372420310974,1.988198161125183,-0.05665842443704605
-0.05421403872599683,0.03696486862662874,0.2065640302807546,-0.9762304840874658,0.12142014571283227,-0.050165341582203,-0.4139859727660368,-0.04977520927786827,-0.12112192809581757,-0.9913888573646545,0.18783316016197205,0.011233218014240265,1.2657591104507446,1.416384220123291,1.875654935836792,-0.38433799147605896
-0.07931062283159333,0.045199245688609994,0.21585067986096534,-0.972149922836134,0.17460200497775366,-0.05449753851754485,-0.43220889571127535,-0.05364247038960457,-0.17371611297130585,-0.9833337068557739,0.03332313895225525,0.08998088538646698,0.982384979724884,1.028989553451538,-1.3683948516845703,-0.6219931244850159
-0.09441989547322702,0.06996420717146111,0.22679687256032327,-0.9668263382778264,0.21598598689099524,-0.09479944538582516,-0.4505401274703385,-0.09245828539133072,-0.21431052684783936,-0.9723798036575317,0.1569400429725647,0.2762601375579834,0.7451283931732178,0.8773195743560791,-0.94089674949646,-0.4823662042617798
-0.0943387845468231,0.09171122356185056,0.24200294054337865,-0.9613136940867995,0.22773039741888396,-0.13453448696359374,-0.4778266704593633,-0.13066606223583221,-0.22576701641082764,-0.9653785228729248,-0.03236844390630722,0.27394765615463257,-0.0279402993619442,0.26584216952323914,-0.4636717438697815,-0.6475929021835327
-0.10052802033611995,0.10613326294872522,0.2555925566346031,-0.9556685530386136,0.24896053942023733,-0.15692979839243937,-0.5029892987976248,-0.15146809816360474,-0.24639658629894257,-0.9572597146034241,-0.1509048044681549,0.05316916108131409,-0.3071615993976593,0.3137947618961334,-1.5594903230667114,-0.8843640089035034
-0.10049282712142152,0.12602817535500022,0.2784471568076584,-0.9468291800146458,0.26352291201175143,-0.19037049443808465,-0.5467359865266765,-0.18269051611423492,-0.26048338413238525,-0.9480361938476562,-0.4080376625061035,0.30445995926856995,-1.1977901458740234,0.35253438353538513,-0.6283292174339294,-1.0161936283111572
-0.09873148392759845,0.13785664250890112,0.2957900022945733,-0.9400829874890713,0.27047044665277026,-0.2098985569732554,-0.5810077222173844,-0.20078589022159576,-0.2671847343444824,-0.9424952864646912,-0.3285331726074219,0.40179604291915894,-0.6315022706985474,-0.39072033762931824,-0.9387606382369995,-0.6750823259353638
-0.0920819973044349,0.13408068347572277,0.30391293858214546,-0.9387120963470321,0.25720105754851136,-0.20382311726044008,-0.5997640662960887,-0.19575658440589905,-0.25437459349632263,-0.9470865726470947,0.0897630825638771,0.3864437937736511,0.3375110328197479,-0.08482009172439575,1.1627862453460693,-0.005361802875995636
-0.10113592051239081,0.11663357778704005,0.30021212854287754,-0.9412974484731818,0.2634650558934218,-0.16527802518847293,-0.5955236631975537,-0.15884940326213837,-0.2604275047779083,-0.9523362517356873,0.04580700397491455,0.2298087775707245,1.3159809112548828,0.15065689384937286,-0.7781035900115967,0.13490979373455048
-0.09426280635500513,0.12303721189781963,0.30062223837044394,-0.941064724987899,0.2541163638158545,-0.18169812150718548,-0.5951320138157379,-0.17489705979824066,-0.25139015913009644,-0.9519527554512024,0.1746840924024582,0.18698669970035553,0.5853031277656555,-0.11447028815746307,0.42112720012664795,0.046354182064533234
-0.09135142610886399,0.1391936581870259,0.3007550010790388,-0.939056265950873,0.2581524246389553,-0.21520618170296274,-0.5918627102583869,-0.20647265017032623,-0.2552945613861084,-0.9445601105690002,-0.2523416578769684,0.10242615640163422,-0.2403927743434906,-0.7410906553268433,-3.644773006439209,-0.15720342099666595
-0.08775912693552865,0.12906864102822524,0.3115633709410457,-0.9373195781122831,0.2474607128739464,-0.19437779054078047,-0.6175683885875757,-0.18727216124534607,-0.24494273960590363,-0.9512792229652405,0.02473597787320614,0.1888127624988556,0.0924253761768341,0.8864486217498779,1.6567076444625854,-0.5506753921508789
-0.08038532427465367,0.1417230722343036,0.3306144666711896,-0.9295950400719054,0.24562539192457272,-0.21858196758112222,-0.6563196440333185,-0.21033711731433868,-0.24316291511058807,-0.9469055533409119,-0.03899332880973816,0.1880725771188736,-2.063375473022461,-0.9859868288040161,0.7665321230888367,-1.100050449371338
-0.08679042913911582,0.0997631258469734,0.3432702488425243,-0.9298818698694633,0.2319760792599257,-0.12978128646745174,-0.6921304709980708,-0.12595079839229584,-0.2299010455608368,-0.9650294780731201,0.08080247789621353,0.22065749764442444,-0.3012389838695526,-0.35240989923477173,2.5054070949554443,-0.8939494490623474
-0.09916300140355734,0.063008190242572,0.35975497440293164,-0.9256204225900042,0.23095741145321694,-0.046546856183804323,-0.7359911225817095,-0.04529467597603798,-0.22890955209732056,-0.9723933339118958,0.029750164598226547,0.07068350166082382,0.5336439609527588,0.3364578187465668,1.5285555124282837,-1.3303732872009277
-0.12261852465504657,0.04724875728004723,0.3830615404094174,-0.9143282530707044,0.26346291111240255,0.007808657072768285,-0.7945118031838875,0.007539022248238325,-0.26042547821998596,-0.9654645323753357,0.06063283979892731,0.198335662484169,1.1087956428527832,1.0432313680648804,0.4563692808151245,-1.5090632438659668
-0.142917002188112,0.052036514012625254,0.41323054568062095,-0.8978349534354015,0.3043131075737167,0.025866163550519516,-0.8666605134947222,0.024674823507666588,-0.2996378540992737,-0.9537338614463806,0.05982162058353424,0.1478828340768814,0.7435675859451294,1.1761362552642822,-0.20274126529693604,-2.0280702114105225
-0.14429897045111875,0.0713985637728017,0.46494071086657895,-0.8705804325771852,0.3232394635458084,0.010403507582569475,-0.982739473248678,0.009864428080618382,-0.31763988733291626,-0.9481601119041443,0.038123562932014465,0.3430016040802002,-0.997697114944458,0.2754843831062317,0.7458869218826294,-3.1554388999938965
-0.1618366052305391,0.05869128333467314,0.524104125731586,-0.8340738711002171,0.3378803717870103,0.07610504918143571,-1.1350202165225187,0.07173261046409607,-0.3314880430698395,-0.940728485584259,-0.3416305184364319,0.25046467781066895,-0.41643768548965454,0.3244791626930237,-0.9527654051780701,-3.9559543132781982
-0.16554696372164115,0.05435833031960963,0.5955705382333906,-0.7841780498430191,0.33036153056045925,0.1186134846071323,-1.3188818430478588,0.11193644255399704,-0.32438501715660095,-0.939278781414032,-0.6017560958862305,0.3524210453033447,-0.9183801412582397,0.37560996413230896,-0.5448676943778992,-4.4138360023498535
-0.1618301058995344,0.050619871097117804,0.6598925967078776,-0.7319771074165389,0.30859386106193565,0.1469190627891522,-1.4902004505006468,0.13947567343711853,-0.30371925234794617,-0.9424973130226135,-0.5230951905250549,0.4914999306201935,-0.5031477212905884,-0.3305230438709259,-0.805779218673706,-3.910428524017334
-0.1562988136400246,0.03965388499932028,0.7136581505943147,-0.6816819898330171,0.2730719287774709,0.1764431346439651,-1.6409246799089088,0.16902504861354828,-0.2696908414363861,-0.9479964971542358,-0.3822394013404846,0.37860924005508423,0.4178463816642761,-0.10016924142837524,-0.17619265615940094,-3.608031749725342
-0.15673631902741308,0.029054459450051084,0.760717029197009,-0.6292052849785458,0.24385265658979358,0.2095879667747122,-1.7852455272959387,0.2019014209508896,-0.24144314229488373,-0.9491791129112244,-0.2983078062534332,0.4126395583152771,1.0537596940994263,-0.004073649644851685,-0.17662569880485535,-3.439211130142212
-0.11828825548020111,0.04098893784644829,0.8083204209595012,-0.5752791162875479,0.20376913810810487,0.14764899519103492,-1.9196491215906935,0.1440693736076355,-0.20236198604106903,-0.9686555862426758,-0.36618971824645996,-0.11742076277732849,-0.6820350885391235,-1.1995849609375,-2.8319644927978516,-3.849771499633789
-0.12483453392534535,0.03118191820982012,0.8477368970577885,-0.5145738574921124,0.18235019410291367,0.18362028328934335,-2.0673306610065127,0.1795627921819687,-0.18134137988090515,-0.9668880701065063,-0.26129376888275146,0.20161455869674683,-0.32619544863700867,1.171067237854004,1.9162392616271973,-3.4973556995391846
-0.13251486779347132,0.028244419446688845,0.8795744181756386,-0.4560603081180375,0.17139358498802088,0.21201921974317947,-2.203197320391344,0.2073509842157364,-0.17055577039718628,-0.9632841348648071,-0.29721519351005554,-0.2703867554664612,-0.6691077351570129,0.03178298473358154,0.1233232170343399,-3.547112226486206
-0.1534083005885912,0.02255270522042391,0.9076088723403267,-0.3901326646713763,0.16133625247886135,0.26748298105385454,-2.3514086735614965,0.2608723044395447,-0.16063734889030457,-0.9519145488739014,-0.16049006581306458,0.04852652549743652,0.13890743255615234,0.909369945526123,1.9604747295379639,-3.6271615028381348
-0.18837070110606685,0.011453668138396083,0.9276192653937989,-0.32234756173461654,0.14317966477877947,0.35290489531422176,-2.498273395980656,0.34208840131759644,-0.14269106090068817,-0.9287706017494202,-0.4891231656074524,0.17204874753952026,1.3504581451416016,0.4805566668510437,0.2555876672267914,-3.5335991382598877
-0.15232781634543308,0.007240086751035815,0.9549195751300653,-0.254701138631707,0.0915513760786689,0.2925987276759031,-2.633778162019675,0.28723347187042236,-0.0914236530661583,-0.9534876346588135,-0.5523859262466431,-0.07884372770786285,0.014170818030834198,-0.8260946273803711,-2.717571258544922,-3.8971683979034424
-0.1272929989694778,0.00043213493417989656,0.9748596866746061,-0.18287971984797027,0.047418926509707325,0.2509317968308958,-2.776693402515583,0.24802756309509277,-0.04740127548575401,-0.9675925970077515,-0.5854417681694031,-0.011412233114242554,-0.1770070195198059,0.6945927739143372,-0.2373114824295044,-3.6092448234558105
-0.10107915737131144,0.0005645079560570183,0.9872508542321037,-0.12295773962428674,0.02597447196548623,0.20085727578806742,-2.89639512593953,0.19944214820861816,-0.02597166784107685,-0.9795653820037842,-0.6247414350509644,0.20771782100200653,-0.11938969790935516,-0.4672325551509857,-2.3842222690582275,-2.6106388568878174
-0.06684386107058483,-0.01283073693349635,0.9949100405268371,-0.0743050132040229,-0.01559782250945894,0.13534326688777273,-2.991441962673904,0.13491405546665192,0.01559707336127758,-0.9907345175743103,-0.6067675352096558,-0.12273478507995605,-0.9833600521087646,-0.4751748740673065,-0.8466399908065796,-2.5093483924865723
-0.05463534977686062,-0.024051761452059943,0.9977292889948505,-0.03119193570807901,-0.04460071439924747,0.11085997538697583,-3.076612013806094,0.1105230525135994,0.04458581283688545,-0.9928730130195618,-0.6154910922050476,-0.058643996715545654,-0.7219219207763672,-0.40315133333206177,-0.5476529002189636,-1.9522719383239746
-0.04100461808007151,-0.032005997710462954,0.9986386356605832,0.003901342929435777,-0.0642890741444316,0.0819084352013751,3.136414658618119,0.08164790272712708,0.06424468755722046,-0.9945884943008423,-0.5351213216781616,-0.18647460639476776,-0.729764997959137,-0.004701301455497742,-0.3662665784358978,-1.613526463508606
-0.03238822016075263,-0.03216259161191917,0.9983992797914641,0.033400868334449385,-0.06643466412123634,0.0627035467887774,3.0767930626551805,0.06252428889274597,0.06638569384813309,-0.995833158493042,-0.46857890486717224,-0.14897207915782928,-0.4901103973388672,0.1848183572292328,-0.04437313973903656,-1.3099160194396973
-0.028192534031948047,-0.03146346222696124,0.9974580111591214,0.05738277215664968,-0.06605051205237411,0.05277031921542393,3.0284051083682173,0.052630871534347534,0.06600239127874374,-0.9964304566383362,-0.3075694441795349,-0.16183817386627197,-0.08235009014606476,0.12676957249641418,0.021341385319828987,-1.0988733768463135
-0.027958299365736985,-0.027539946277707155,0.9960786889529475,0.0792923208272531,-0.05933246968726278,0.05144308872726993,2.984245655746436,0.05132998153567314,0.059297557920217514,-0.9969197511672974,-0.16704607009887695,-0.22893182933330536,0.3339494466781616,0.5489017963409424,0.44865235686302185,-1.05000638961792
-0.032761131715096585,-0.010528451097639767,0.9944471312584182,0.0994527375927877,-0.027459795288228922,0.06312996889234879,2.943106496692742,0.0630643218755722,0.027456244453787804,-0.9976317286491394,-0.22748607397079468,-0.2628072202205658,1.0714354515075684,1.2888708114624023,0.1349819302558899,-0.9799149632453918
-0.007389769467047012,0.008103215683102656,0.9926667991265656,0.12038477754240459,0.014308843110353093,0.016624632792615068,2.9001042339423986,0.016622237861156464,-0.014308448880910873,-0.9997594356536865,-0.26854628324508667,-0.11385541409254074,0.939163327217102,0.7371394634246826,-2.08198881149292,-0.9567562937736511
0.04880232262563698,0.0008829706696659221,0.9890133331393727,0.1395364376537861,0.015366548772455545,-0.09644670589420906,2.8620115265275006,-0.09628579765558243,-0.015366035513579845,-0.9952350854873657,-0.10740303993225098,-0.22577586770057678,-0.442388653755188,-0.336414098739624,-1.4161207675933838,-0.9092737436294556
0.06806727803133733,-0.0006210687550359884,0.9857279385908985,0.1539707763955733,0.019737615160837392,-0.13481709536640016,2.8330292226056475,-0.13438279926776886,-0.01973642222583294,-0.9907329082489014,-0.01772485300898552,-0.03648114204406738,0.2913629114627838,-0.040992334485054016,-0.9446102380752563,-0.46825122833251953
0.1105235679539976,-0.01883231512738618,0.9795031741578805,0.16734260543645887,9.797875923524255e-05,-0.22470549318844266,2.803182355143679,-0.22281917929649353,-9.806649904930964e-05,-0.9748597741127014,-0.0444861501455307,-0.5543416142463684,-1.2897495031356812,-0.6933362483978271,-1.2379207611083984,-1.1136916875839233
0.10629392151049412,-0.019206799627255793,0.975961249061702,0.18929428320395827,0.0027514825248981206,-0.21643562994003537,2.758735458625325,-0.21474887430667877,-0.0027515629772096872,-0.9766654372215271,0.020099550485610962,-0.13560602068901062,-0.6186083555221558,-0.4453541338443756,1.0553076267242432,-1.094496726989746
0.08992158698929546,-0.025096078649752076,0.9729775625854807,0.21118496810688056,-0.010855881135892765,-0.186676470425766,2.713106592360555,-0.18558309972286224,0.01085558719933033,-0.982568621635437,0.053554631769657135,-0.20948144793510437,0.2750657796859741,-0.4653364419937134,0.8302888870239258,-0.9873046875
0.07955440801521997,-0.020937209221878205,0.968167676742519,0.23639850673759027,-0.002928376086578099,-0.16468719392758632,2.662380850524203,-0.16394296288490295,0.002928296336904168,-0.9864654541015625,-0.01860661804676056,-0.2761040925979614,0.9721397757530212,0.4321664273738861,0.38764432072639465,-1.6424378156661987
0.08811767284859506,-0.009943210278816944,0.9587242767185046,0.27015588963796494,0.02854930052312377,-0.17530107717523835,2.594771881357901,-0.17433342337608337,-0.02854548953473568,-0.984272837638855,0.04798330366611481,-0.06173940747976303,0.9546701312065125,0.39296454191207886,-0.24689850211143494,-1.8366860151290894
0.09681813502754183,-0.004513765600279047,0.9479314421928519,0.30336776153228207,0.0502066111353531,-0.18762653366108523,2.5268549005450276,-0.18629245460033417,-0.05018557980656624,-0.98121178150177,0.0059341564774513245,0.08495811372995377,0.8713787198066711,-0.35812556743621826,-0.10568998754024506,-1.793015480041504
0.11811482285132995,-0.026489057280832232,0.933075766043264,0.33869901209717784,0.03058292002041397,-0.2407955586524484,2.4488895643762354,-0.23836366832256317,-0.03057820536196232,-0.9706944823265076,-0.35038524866104126,-0.23403415083885193,-0.32323920726776123,-1.4588074684143066,-2.7923905849456787,-1.9098803997039795
0.12416358700718688,-0.02565375041309725,0.9206354991981,0.36926381469484976,0.04447739596750017,-0.2504189742295655,2.3842891593982354,-0.24756468832492828,-0.04446277767419815,-0.9678506255149841,-0.43187999725341797,-0.05915524810552597,0.09593690186738968,1.0428966283798218,-0.1324707716703415,-1.582510232925415
0.1570660645754207,-0.03191421978621274,0.9034559974245233,0.39759155467625357,0.06728084374368744,-0.31507030427095195,2.32313900809147,-0.3091820776462555,-0.06723012775182724,-0.9486234784126282,-0.6161587238311768,-0.04615992307662964,-1.410827875137329,-0.5148199200630188,-1.7978241443634033,-1.6946961879730225
0.16597920282759007,-0.034320692660789874,0.8914925590218298,0.42013566457930623,0.07835443159725826,-0.3318330977841886,2.2739152744033633,-0.3247770071029663,-0.07827430963516235,-0.942546010017395,-0.3593765199184418,0.18359248340129852,-0.8434722423553467,-0.1787680685520172,-0.050841204822063446,-1.0197741985321045
0.16259359742968071,-0.03736497794320015,0.8854969278074275,0.4336616530190837,0.0749181329458416,-0.3270607000984966,2.243151099244071,-0.32035964727401733,-0.07484809309244156,-0.9443343877792358,-0.15598127245903015,0.20496299862861633,-0.20238065719604492,-0.44003909826278687,-0.06840299069881439,-0.29462653398513794
0.15173125870143453,-0.03804830787321011,0.8860876601827938,0.4363241876025844,0.06502557938296132,-0.30756310194350256,2.2365507229896835,-0.30209705233573914,-0.06497979164123535,-0.9510599374771118,0.09458385407924652,-0.026717979460954666,0.20868255198001862,0.042923152446746826,1.5415427684783936,0.08228947222232819
0.13189626408701394,-0.01623743896860456,0.8906448188809641,0.4348467133611384,0.08589130103124393,-0.25266847802034903,2.2441207265710887,-0.24906691908836365,-0.08578575402498245,-0.964679479598999,0.06670621037483215,-0.08841042965650558,1.344845175743103,0.8183836340904236,0.5611540079116821,-0.053600095212459564
0.14742841700503545,-0.009499585745521046,0.88894804730189,0.43352751139656104,0.11116810731725145,-0.27550013811328006,2.2495234100793557,-0.2703489363193512,-0.11093929409980774,-0.95634925365448,0.16527782380580902,0.015573836863040924,0.7272630929946899,0.22800205647945404,-0.7660608887672424,0.08870011568069458
0.1590417529587356,-0.021680699674044564,0.8868344359040652,0.43331342645518783,0.09953976637609889,-0.30718144719603596,2.248031644218412,-0.30087634921073914,-0.09937549382448196,-0.9484713673591614,-0.021396882832050323,-0.19878949224948883,-0.09550405293703079,-0.6593948006629944,-0.491935670375824,-0.06889833509922028
0.15764792514938242,-0.023688645000381914,0.8860329750815634,0.4353522987327612,0.09543171888312162,-0.3061181832135329,2.2429180818814425,-0.2999882102012634,-0.09528695791959763,-0.9491720199584961,0.1873895525932312,-0.08165711164474487,0.04223720356822014,-0.0003084242343902588,0.3804440498352051,-0.03997340798377991
0.16587489881325138,-0.038690407722257236,0.884051904506939,0.4352480677418777,0.07605811053555755,-0.33409240280576746,2.2394327603474893,-0.32696375250816345,-0.07598482817411423,-0.9419772028923035,0.1083083301782608,-0.311979740858078,-0.7979784607887268,-0.7875658273696899,-1.248958945274353,-0.048227544873952866
0.16017645480688916,-0.04311338835932048,0.8816289697793414,0.4418317435619991,0.06556903365632108,-0.3270178939740797,2.223273763890976,-0.3205299973487854,-0.06552208214998245,-0.9449695348739624,0.13929854333400726,-0.05343255773186684,-0.8950135111808777,0.06205397844314575,0.9760482907295227,-0.29475265741348267
0.1418616907104556,-0.0343760031759032,0.8832987326749762,0.44550758898981896,0.06571965730564656,-0.28572224622558057,2.2167775042314615,-0.28124192357063293,-0.0656723827123642,-0.9573871493339539,0.10848378390073776,-0.045329637825489044,-0.31440162658691406,0.08201810717582703,1.3575748205184937,0.01830344647169113
0.12388624737047102,-0.018401440063356003,0.8867755268922188,0.4449077730814465,0.07767810872861952,-0.23907757982413033,2.2208915730139815,-0.23609234392642975,-0.07760003954172134,-0.9686272144317627,0.1824186146259308,-0.0716799646615982,0.5091267824172974,0.39483052492141724,1.343533992767334,-0.09503010660409927
0.1125689684554916,-0.0005340888073443513,0.8857789526265788,0.45024855743961956,0.10059141754171257,-0.2022960088677345,2.211266932441312,-0.19990326464176178,-0.10042188316583633,-0.9746559262275696,0.08197295665740967,-0.027843177318572998,1.1335326433181763,0.5246894359588623,-0.0672789216041565,-0.44702014327049255
0.12292651573484216,0.010064881927602347,0.8802767352221084,0.45814928650322917,0.13072919872570718,-0.21053126784711124,2.1956611416652687,-0.20719613134860992,-0.13035717606544495,-0.9695755839347839,0.16334836184978485,-0.03928983211517334,0.8499912619590759,0.945972204208374,-0.031953513622283936,-0.6138355731964111
0.14275618730641917,0.017480991772022617,0.8709507238419788,0.4698509891728796,0.16535088117886199,-0.23768329993059661,2.1719365079097863,-0.23224015533924103,-0.16459845006465912,-0.9586302042007446,-0.00880146212875843,-0.023070484399795532,0.028044013306498528,-0.22324326634407043,-1.7774418592453003,-1.0560559034347534
0.14349815893628903,0.021802207016942392,0.8606112123222656,0.4881409102647103,0.17856857442911817,-0.2314140610654954,2.1304926343793715,-0.2257070243358612,-0.17762109637260437,-0.9578658938407898,-0.0950724333524704,-0.12020239979028702,0.01505605224519968,1.3768556118011475,1.1073167324066162,-0.9036759734153748
0.16683922352084501,0.03399544266566012,0.8443820686482792,0.5079645072675651,0.22890075935908674,-0.2566441982509598,2.0880925688436314,-0.24721500277519226,-0.22690708935260773,-0.9420179724693298,-0.34895089268684387,-0.07682843506336212,-0.7112440466880798,-0.008389085531234741,-1.9050334692001343,-1.6269443035125732
0.18433593511286728,0.022460157433321696,0.8267357638731744,0.5310591224000565,0.2350830897482628,-0.2930616127073179,2.034479037424617,-0.2809387445449829,-0.23292377591133118,-0.9310316443443298,-0.28993770480155945,0.2537270784378052,-0.7166459560394287,-0.38552483916282654,-0.5507169961929321,-1.0422430038452148
0.18642150298112758,0.003446955397364835,0.8134558869805666,0.5509306622367535,0.21261684297934946,-0.31140104947763786,1.9844731139062022,-0.29949313402175903,-0.21101851761341095,-0.93047034740448,-0.17209883034229279,0.14697939157485962,-0.41762179136276245,-1.1064496040344238,-0.3400866985321045,-0.8525565266609192
0.1776583691547486,-0.0069327751225127555,0.8056001297279278,0.5651530365022396,0.19079369218845704,-0.30418358998658457,1.9474188819620826,-0.2940792441368103,-0.18963822722434998,-0.9367789030075073,0.029114970937371254,0.24346069991588593,0.17657102644443512,-0.6215770244598389,0.6350302696228027,-0.5221478939056396
0.15730340470851678,0.0011459160448854375,0.8046746672903318,0.5724971527438277,0.1829749695072579,-0.2590056907721876,1.928730075098227,-0.2518439292907715,-0.18195566534996033,-0.950508713722229,0.019558757543563843,0.146497905254364,1.2694047689437866,-0.08757169544696808,0.4666801393032074,-0.26724475622177124
0.16623106407311872,-0.006571812844290662,0.8007465401255977,0.5754382381654788,0.18178628132479455,-0.2820946339342279,1.9212378204236173,-0.2737811207771301,-0.18078668415546417,-0.9446481466293335,0.06284186244010925,0.14016084372997284,0.8424943685531616,-0.16770797967910767,-0.9710551500320435,-0.13339723646640778
0.1784543740815552,-0.020598283734099946,0.798033782472989,0.5752147293056331,0.17328889842353676,-0.31857448874097943,1.9204131918538359,-0.30852198600769043,-0.17242290079593658,-0.935459554195404,0.034964218735694885,0.27243784070014954,0.44028934836387634,-0.7632808685302734,-1.0417778491973877,0.2508948743343353
0.19075568375550886,-0.053898594549394815,0.7970745505828057,0.5704204457540174,0.13208320674494237,-0.3777123479523991,1.9245790831807321,-0.36558258533477783,-0.13169947266578674,-0.9214144945144653,0.17432725429534912,-0.16044825315475464,-0.6087327599525452,-0.4462541341781616,-0.45931652188301086,0.4673195779323578
0.20036498506862752,-0.05824044507387572,0.799352129066299,0.5634698709744981,0.13308250564568677,-0.399981242868495,1.9405819938356332,-0.3859576880931854,-0.13268999755382538,-0.9129238724708557,-0.04314001649618149,-0.16165566444396973,-0.7226613163948059,0.12447395920753479,-1.352375864982605,0.22598055005073547
0.20358432729715026,-0.06497164758705054,0.7984410339161565,0.5628713707551682,0.12576277416618642,-0.41305771474494624,1.9398772692830024,-0.39824140071868896,-0.12543150782585144,-0.9086642861366272,0.08239118754863739,0.050070807337760925,-1.4343314170837402,0.19247618317604065,1.7146087884902954,0.32859376072883606
0.1764912417817267,-0.05312854566657572,0.806485573739399,0.5617912285181603,0.11284700673507152,-0.35391621249028854,1.9449240144673963,-0.34436944127082825,-0.11260764300823212,-0.9320564270019531,0.13369081914424896,0.05636303871870041,-0.5301821827888489,-0.513218879699707,1.4573121070861816,0.2984926402568817
0.14686110087730417,-0.04480907270079437,0.8147381501562999,0.559129447550435,0.09134036715806003,-0.29488136858118114,1.9522658645715016,-0.2894147038459778,-0.0912133976817131,-0.952847957611084,0.2751157581806183,0.017022736370563507,0.47462132573127747,-0.2583760619163513,1.5632011890411377,0.40831685066223145
0.12599439427320203,-0.032630982344785675,0.820078898981625,0.5572533496659828,0.08701138839801212,-0.24642754317361903,1.9586894017992604,-0.2430180013179779,-0.08690162748098373,-0.9661213159561157,0.10545428097248077,-0.18261569738388062,1.222853183746338,0.2611217498779297,0.1552874892950058,-0.05459805205464363
0.14149921457572825,-0.028841326688482403,0.8163007224529636,0.5592845848542629,0.11142066411232712,-0.2681163385121296,1.955261632807266,-0.2632727026939392,-0.11119025945663452,-0.9582923054695129,0.21826684474945068,-0.10400249063968658,0.8441888093948364,1.0855729579925537,-0.34293848276138306,-0.38023602962493896
0.16258916588371833,-0.01252379858690181,0.8111185887535167,0.5616891249955788,0.16305411136611225,-0.2854213256725987,1.9537407495224546,-0.27782702445983887,-0.16233254969120026,-0.9468158483505249,0.20762799680233002,0.17909452319145203,0.6986503005027771,0.6142327189445496,-0.8704893589019775,-0.49218684434890747
0.18119430072138806,-0.025788612553617647,0.8005403437644804,0.5706477264658125,0.16627165531772628,-0.329962562335604,1.9307708424174181,-0.31953898072242737,-0.16550657153129578,-0.9330071806907654,0.05804744362831116,-0.16680702567100525,-0.664060115814209,0.1612337976694107,-0.042419396340847015,-0.5017346739768982
0.19625376071364095,-0.007010825869976752,0.7953229137862671,0.5734953354434887,0.21561629329485582,-0.33397599633742653,1.928599597037839,-0.3202114403247833,-0.21394947171211243,-0.9228706359863281,-0.029065236449241638,-0.024212511256337166,-0.22348877787590027,0.6706677675247192,-1.2467265129089355,-0.5964085459709167
0.2192280366835716,-0.028579806100240163,0.7802331066915549,0.5851142375780592,0.21356891011757037,-0.39442051049212634,1.8975189579116267,-0.37554270029067993,-0.21194905042648315,-0.9022445678710938,-0.23538148403167725,0.27286964654922485,-1.778916597366333,-0.7254320383071899,-0.01236756145954132,-0.1222255602478981
0.21524726891581097,-0.048187123229785654,0.7752260377643478,0.5919216490951079,0.1810954440725752,-0.4085435778259384,1.8749769298633503,-0.39077645540237427,-0.18010719120502472,-0.9026932716369629,-0.2021503895521164,0.2742850184440613,-0.6917699575424194,-1.4233472347259521,-0.6425096988677979,-0.11586359143257141
0.20552609002342875,-0.07285021344796941,0.7740227935263502,0.5944246183643963,0.13194661375287137,-0.42061391712056023,1.8599941078035054,-0.4047715365886688,-0.13156406581401825,-0.9049038290977478,0.021971389651298523,0.27106282114982605,-0.12228363752365112,-1.0624977350234985,-0.19137537479400635,0.49746596813201904
0.1790567619495862,-0.07930207645207439,0.7839049704707066,0.5891884237394142,0.08677461762272319,-0.38503100090923303,1.8694604237262233,-0.374174565076828,-0.08666574209928513,-0.9232997894287109,0.2948925793170929,0.09547776728868484,0.7696752548217773,-0.6880608797073364,1.8146148920059204,0.7649897933006287
0.16694692061232372,-0.08303190854790114,0.7938726019220878,0.5787926246530121,0.061460464190996544,-0.3702719072147785,1.8931586205695712,-0.36118555068969727,-0.06142176315188408,-0.9304689168930054,0.09570983052253723,-0.09855537861585617,1.0216574668884277,-0.144126296043396,-1.0056560039520264,0.7514684796333313
0.17814965040516606,-0.09260490554264605,0.8009870351811393,0.5640095953008976,0.05262986021777269,-0.40105710124676847,1.9252901166693612,-0.38985109329223633,-0.052605558186769485,-0.9193741083145142,0.32476821541786194,0.020148679614067078,0.7060638666152954,0.33466047048568726,-0.250785231590271,0.8801454901695251
0.19090606259433848,-0.10929944188584165,0.8065760668498044,0.5486744293786673,0.03318000974325506,-0.4424289306386164,1.9543584111922272,-0.4279000163078308,-0.03317391499876976,-0.903217077255249,-0.056335411965847015,0.007508948445320129,-0.19602176547050476,-0.8302936553955078,-2.45503306388855,1.016625165939331
0.19740316174075614,-0.11969675280693794,0.8156118216699212,0.5305489779680806,0.014212396669528013,-0.46571752878053274,1.991521449346705,-0.44901853799819946,-0.014211918227374554,-0.8934094309806824,0.24447089433670044,-0.34322208166122437,-0.06395623087882996,1.1092898845672607,0.0411095917224884,0.7297804951667786
0.22738101041849842,-0.12792953291259962,0.8160341328353096,0.5157715544095903,0.025766434465429807,-0.5273361879561542,2.021247911880647,-0.5030660033226013,-0.025763586163520813,-0.8638638854026794,0.029034078121185303,-0.21195754408836365,-1.611409306526184,0.048895180225372314,-2.1535937786102295,0.12165264785289764
0.21410218326691602,-0.11472630152959244,0.8271202730151014,0.5068237889174251,0.02724262940181121,-0.4900195940324137,2.048910903168413,-0.4704684019088745,-0.02723926678299904,-0.8819963335990906,0.23003020882606506,0.0010450482368469238,-0.8969437479972839,0.17466504871845245,1.460030198097229,0.5079116821289062
0.18754421804156024,-0.10865007808781209,0.8387455432484437,0.49952807662284754,0.0051076897092040665,-0.4369266072255737,2.0684214352045864,-0.4231511354446411,-0.0051076775416731834,-0.9060447216033936,0.28717684745788574,0.04398886114358902,-0.3356938362121582,-0.48123401403427124,1.4118483066558838,0.8745386600494385
0.1570901264049141,-0.10470432883846498,0.852676923115026,0.4871362653431186,-0.025512102312345526,-0.37903616238186816,2.098596845045335,-0.36990466713905334,0.025509320199489594,-0.9287194609642029,0.38154271245002747,-0.05773831903934479,0.3583759665489197,-0.38231897354125977,1.6663775444030762,1.0100961923599243
0.12665992121457031,-0.09347486277851895,0.8642492752129262,0.4778001049580193,-0.04054602607773169,-0.3136258531751143,2.125123888026644,-0.3082559406757355,0.04053489863872528,-0.950439453125,0.18342608213424683,-0.1955479234457016,1.4162390232086182,0.15372732281684875,0.449715793132782,0.46391090750694275
0.1424355208263998,-0.09876414234494708,0.8654274742124196,0.47009918761011754,-0.03703722634304202,-0.3465192589468546,2.139896875408093,-0.3393929898738861,0.03702873736619949,-0.9399155974388123,0.25661712884902954,-0.10242566466331482,0.7961065173149109,0.4127681255340576,-1.1049582958221436,0.27216053009033203
0.16647718087634927,-0.10285909151484524,0.8648700796406765,0.46228266014911484,-0.024002778014903702,-0.39322859327668236,2.1550638567101266,-0.38306206464767456,0.02400045096874237,-0.9234107732772827,0.13971099257469177,-0.010729186236858368,0.2643599808216095,-0.05377066135406494,-2.1122379302978516,0.03612478822469711
0.18206751816956154,-0.11391628823733332,0.8618113345020223,0.459517011839177,-0.029026528797357006,-0.4319968154563372,2.1555177240969043,-0.41850849986076355,0.02902243100106716,-0.9077490568161011,0.10164947062730789,0.10717345774173737,-0.305826872587204,0.7342678904533386,0.29170969128608704,0.33058762550354004
0.19627674894503253,-0.11064698579978925,0.8631966340226591,0.4518012493312213,-0.013664475867927984,-0.45434373039374415,2.1740427028119305,-0.438831627368927,0.013664026744663715,-0.8984653949737549,-0.09443088620901108,-0.19072526693344116,-0.6497037410736084,0.18133819103240967,-1.1581463813781738,-0.14103522896766663
0.20278740478607812,-0.1223985456040879,0.8588752294334306,0.45412472896813166,-0.02607156088996915,-0.4776154495769256,2.1624908605197244,-0.45950642228126526,0.026068584993481636,-0.8877918124198914,-0.04469636082649231,0.32762831449508667,-0.8611359596252441,-0.7451748251914978,0.3949179947376251,0.2055446356534958
0.183970143391958,-0.14142311133389118,0.8611115899971077,0.4523731313558192,-0.07719249892931677,-0.4624232367507359,2.1559903256706474,-0.4447895288467407,0.07711583375930786,-0.8923090696334839,0.03219938278198242,0.10847193002700806,-0.3677029013633728,-1.354230284690857,0.5051224231719971,0.6691531538963318
0.15750051036978846,-0.1566606243311076,0.8682335206089637,0.44364603342402925,-0.13267596217229116,-0.4292132784476269,2.1678551321387407,-0.41249802708625793,0.13228702545166016,-0.90130215883255,0.27801528573036194,0.03333435207605362,0.3291882276535034,-0.8658707141876221,1.280648112297058,1.1074246168136597
0.12665360177165397,-0.15829611139189698,0.8798207189263922,0.42990336439016014,-0.17047124080990553,-0.3728260550544661,2.200351872506841,-0.3589688539505005,0.1696467399597168,-0.9178024530410767,0.2086620181798935,-0.3913443982601166,1.0428617000579834,-0.27255779504776,0.4605974555015564,0.9309219717979431
0.13026722935066695,-0.16100146481253652,0.8850916627684726,0.4167996376286082,-0.17733951387887537,-0.3796766761634883,2.227216363864867,-0.36480745673179626,0.17641140520572662,-0.914218008518219,0.36549532413482666,-0.2647319436073303,0.742256224155426,0.47118300199508667,-0.31825435161590576,0.5889087319374084
0.13568462506920065,-0.1566387326294585,0.8911945498528385,0.4035174603211946,-0.1705140220590196,-0.38296775016417767,2.258128546899974,-0.3682555854320526,0.1696888953447342,-0.9141080379486084,0.43703025579452515,-0.08720661699771881,0.5094057321548462,-0.05320841073989868,-0.7672266364097595,0.6851887702941895
0.15053601093834307,-0.18046394464906643,0.8916370478144483,0.3869821822566752,-0.20677755246036536,-0.4301452103270327,2.2773080742190954,-0.4081194996833801,0.20530712604522705,-0.8895434141159058,0.7372512817382812,-0.09237520396709442,-1.1350834369659424,0.49461230635643005,1.902354121208191,1.157470941543579
0.15482943550452494,-0.16655890054114103,0.8983437134617683,0.37585186173312274,-0.18390328203343542,-0.42278497586319924,2.309515313721834,-0.40338292717933655,0.1828683763742447,-0.8965719938278198,0.27519118785858154,0.02239888533949852,-0.6931992769241333,0.31047356128692627,-1.587636947631836,0.42992883920669556
0.16127919999394139,-0.16622896345758564,0.9003108165927203,0.3685069633612912,-0.1814444011893657,-0.433233109274453,2.3245435333923576,-0.41291573643684387,0.18045039474964142,-0.8927139639854431,0.5413330793380737,0.21893584728240967,-1.543267011642456,0.3927696943283081,1.5376633405685425,0.5913945436477661
0.13959889447494894,-0.1529489826660487,0.908350330187754,0.36334359674756256,-0.1773459635868933,-0.37962014023271173,2.3464149486128805,-0.3647553324699402,0.176417738199234,-0.9142375588417053,0.4927827715873718,0.050059787929058075,-0.5570615530014038,0.5742419958114624,0.6880596876144409,0.40782564878463745
0.13167267240001407,-0.13357229931219253,0.915853294985776,0.35501227633913995,-0.15175625024782086,-0.3468447112621366,2.375363536144483,-0.3360251784324646,0.1511743813753128,-0.9296415448188782,0.42011696100234985,0.10544805973768234,-0.13976037502288818,0.879885196685791,0.6211663484573364,0.5527795553207397
0.12128791802832016,-0.11211732642100286,0.9241802732971461,0.34439758816242405,-0.1240083000491391,-0.3086179451214156,2.4088584618413083,-0.3014095425605774,0.1236906498670578,-0.9454379081726074,0.3916788399219513,-0.13380926847457886,0.6809365153312683,1.1874463558197021,0.9210020303726196,0.4741518199443817
0.12585214902269762,-0.08054666769068243,0.929844219416032,0.33624881972506293,-0.065202623945717,-0.29300136133209076,2.43799300720626,-0.2882131040096283,0.06515637785196304,-0.9553470015525818,0.1843487173318863,-0.24872414767742157,1.1732337474822998,1.7294092178344727,-0.9997799396514893,0.01927793025970459
0.14342174664838586,-0.058065646060035274,0.9306018256173078,0.3317212121094158,-0.012920280644735271,-0.31044856272852145,2.4547366362635255,-0.3054601550102234,0.012919865548610687,-0.9521172046661377,0.3910016715526581,0.03865492343902588,0.6045534014701843,0.9846422672271729,0.22405874729156494,0.08350259065628052
0.15596602129991854,-0.053741550603472764,0.9292372977620595,0.33061254351005426,0.003251345214049204,-0.3314303486543865,2.4584908440804947,-0.32539403438568115,-0.0032513942569494247,-0.9455729126930237,0.11327125877141953,-0.29583486914634705,-0.3096347451210022,0.4979979395866394,-0.48281943798065186,-0.28728339076042175
0.16907169865041272,-0.03351038560496023,0.9284079665984376,0.3291663158573612,0.04910252753227928,-0.3430930339943588,2.4686576734873746,-0.3359958827495575,-0.04908285290002823,-0.9405836462974548,0.1903315633535385,-0.01546112447977066,0.02606748603284359,0.8516761660575867,-0.7746512293815613,-0.17164984345436096
0.1905091709682813,-0.02454126931841315,0.923598633090803,0.33176761538913646,0.0811660711934818,-0.37837205207112823,2.467426903804067,-0.3681918978691101,-0.08107703179121017,-0.9262080192565918,-0.15592707693576813,0.14626693725585938,-0.6607667207717896,0.5414804220199585,-1.5636346340179443,-0.2652764320373535
0.20643975791099525,-0.023444800249433777,0.9207134603441167,0.3303328186227342,0.09335129323181339,-0.40864149231163904,2.472000882297828,-0.3956327736377716,-0.09321581572294235,-0.9136659502983093,-0.18472832441329956,0.16802151501178741,-0.782017707824707,0.13230285048484802,-0.5196419358253479,0.16956548392772675
0.2121065195521298,-0.022995491493704397,0.9217908627193193,0.3237031279630681,0.09506815871628646,-0.42000434037201756,2.4864412336838857,-0.4059230089187622,-0.09492506831884384,-0.9089640974998474,-0.19613462686538696,0.009452201426029205,-0.46546080708503723,0.24423903226852417,-0.26367026567459106,0.32943978905677795
0.19972490835847845,-0.019365603672536424,0.9272825160500732,0.31604147330562987,0.09045122337876862,-0.39435646927365503,2.5027179150553036,-0.38264337182044983,-0.09032799303531647,-0.9194698929786682,0.17831829190254211,0.02341616153717041,0.06454960256814957,0.03494688868522644,1.8736695051193237,0.5158335566520691
0.16652022924586538,-0.005771476082477148,0.9364276787182111,0.3087734172254839,0.09215528477242942,-0.32232916845931914,2.5195671854845036,-0.3154323399066925,-0.09202495217323303,-0.9444754123687744,0.20930171012878418,-0.23696741461753845,1.287654995918274,0.3623019754886627,0.9029152989387512,0.16752350330352783
0.1572969413057334,0.009268150128275492,0.9386862271462602,0.30665974347403085,0.11412059630558645,-0.2958121603019331,2.5270941347768057,-0.2896204888820648,-0.11387310177087784,-0.9503435492515564,0.27720385789871216,-0.03630433976650238,0.9303480982780457,0.7714601755142212,0.4392922520637512,0.05436895787715912
0.16804810783754104,0.011970746559332966,0.9381636231825697,0.30243304612938704,0.12442846789040954,-0.3156904570258129,2.5377255932519063,-0.30807241797447205,-0.12410769611597061,-0.943233072757721,0.1522379219532013,-0.3456036150455475,-0.4517928957939148,0.0471230149269104,-1.1019411087036133,-0.10073771327733994
0.1573404322234113,0.034570377162489715,0.9382668039499035,0.30611177458123817,0.16190642671776231,-0.28142192929251064,2.5338470850108963,-0.2740896940231323,-0.16120004653930664,-0.9480977654457092,0.3383392095565796,-0.028851613402366638,-0.001408591866493225,0.3194301128387451,0.3533172607421875,-0.4342213273048401
0.15472485634698607,0.03656981425568198,0.9358234776748561,0.3145750154928291,0.16655998634687977,-0.27372895369882044,2.51602157609659,-0.26658228039741516,-0.16579097509384155,-0.9494457840919495,0.3140723705291748,-0.3397391140460968,-1.2552460432052612,0.34896302223205566,0.20630709826946259,-0.7287089824676514
0.11755552948901288,0.05747070692067943,0.9364046490207754,0.32561371367761743,0.18524470692609216,-0.18700132604057523,2.489715394511253,-0.1827324777841568,-0.18418709933757782,-0.9657556414604187,0.5710614323616028,-0.05544300377368927,-0.7296710014343262,0.22479331493377686,2.6828253269195557,-0.7332029342651367
0.08155758308250907,0.07511209717297704,0.9329955054752543,0.34238277902185293,0.19728357326806892,-0.1029261462359902,2.4483604890622033,-0.10075142234563828,-0.19600635766983032,-0.9754130840301514,0.4103979468345642,-0.16748148202896118,-0.09106922894716263,0.2649986743927002,1.2054336071014404,-1.3049429655075073
0.057111878330637945,0.09496085925620464,0.9246370309606373,0.36437225944473445,0.21897439401496235,-0.03731276076186891,2.394926098108503,-0.036413196474313736,-0.21722865104675293,-0.9754413366317749,0.4007508456707001,0.15976670384407043,0.7309824824333191,0.46918970346450806,1.5027679204940796,-1.2775564193725586
0.0441528159973276,0.10474157403746476,0.9142284836992629,0.3889296008326719,0.22782589663948438,0.0007623731079843823,2.3370556650034042,0.0007427855161949992,-0.22586016356945038,-0.9741594791412354,0.15673747658729553,0.11690783500671387,1.205547571182251,-0.12635360658168793,-0.5252630114555359,-1.5722099542617798
0.051341585452780295,0.10205557730582984,0.8997493718220326,0.4211885496765116,0.228891278710916,-0.00659180765904241,2.266714416771737,-0.006419721990823746,-0.22689788043498993,-0.973897397518158,0.054798416793346405,-0.0028620995581150055,0.48317915201187134,0.0664011612534523,-0.9590198993682861,-1.8031178712844849
0.06129323571637781,0.10941569521601494,0.8811117370215675,0.45597551261380875,0.2513495565763495,-0.008497741319513015,2.1875673245508724,-0.008230505511164665,-0.24871134757995605,-0.9685426950454712,0.10816914588212967,-0.13886989653110504,0.020909516140818596,0.8741657733917236,-0.4469727575778961,-2.0975494384765625
0.07720162042281868,0.1144967817419703,0.8605119327351727,0.49035675826237546,0.2762651863724904,-0.021389947015876775,2.1086663325770303,-0.020577169954776764,-0.2727643549442291,-0.9618607759475708,0.053585946559906006,0.15421810746192932,-0.0634130984544754,-0.03812631964683533,-1.8401527404785156,-1.8062565326690674
0.09275246934427296,0.11169842994524186,0.8396562698699845,0.5233525765865364,0.2886528436627988,-0.04053260656597081,2.0327415106769924,-0.038844939321279526,-0.28466105461120605,-0.9578408598899841,-0.1592128574848175,0.10345272719860077,-0.3387962877750397,0.32528233528137207,-1.4383580684661865,-1.6528956890106201
0.10772145759092604,0.11100637857882485,0.8196370324508433,0.551605743319123,0.3055412772136128,-0.05678039730250028,1.9656054657619118,-0.05412135645747185,-0.30080941319465637,-0.952147364616394,-0.31622710824012756,0.3072502017021179,-0.7708466649055481,-0.053338441997766495,-0.8328951597213745,-1.4904626607894897
0.11324388733945084,0.09912791842995473,0.8030923396567184,0.576534764104918,0.29401349595612586,-0.0706784383194171,1.9067940894761386,-0.06758908927440643,-0.28979578614234924,-0.9546989798545837,-0.3476073145866394,0.5201765298843384,-0.5674436092376709,-0.5870608687400818,-0.668878972530365,-1.061914086341858
0.11123149840473634,0.08687307231894438,0.7935494158859898,0.5919121794468345,0.27293059443633716,-0.07660039589915428,1.8703666290481382,-0.07369279861450195,-0.26955467462539673,-0.9601612687110901,-0.18685296177864075,0.3310791552066803,0.29125481843948364,-0.4869157075881958,-0.2908608317375183,-0.7824862003326416
0.1081830937623769,0.08538671097205898,0.782560193727473,0.6071286356752743,0.268206608763622,-0.06812453763921784,1.8311383647082384,-0.06563800573348999,-0.2650025486946106,-0.9620110988616943,-0.07735181599855423,0.2007976770401001,1.1230818033218384,0.11252471059560776,-0.22538873553276062,-1.0916692018508911
0.1183137040278617,0.08030914345349165,0.7639203469148811,0.629267957410412,0.2750568217372386,-0.0829001389206372,1.7749789951513937,-0.07969243079423904,-0.2716015875339508,-0.9591046571731567,0.033365629613399506,-0.10714171826839447,0.28953179717063904,0.30354171991348267,-0.490287721157074,-1.7768738269805908
0.1229315578903214,0.09466791311459409,0.7361031997078137,0.6588459536066208,0.3061151036220183,-0.059013591630679624,1.6905567471543315,-0.056237366050481796,-0.30135658383369446,-0.9518516659736633,-0.05396539717912674,0.04850829020142555,-0.28914156556129456,0.6164252161979675,0.4997996985912323,-2.337606191635132
0.11753835716495789,0.10825156794129831,0.702544510740509,0.6934678479374144,0.3205843924261567,-0.015820552356809677,1.586357869335202,-0.015013780444860458,-0.3151211738586426,-0.9489327073097229,-0.009479597210884094,0.18977107107639313,-0.4700598120689392,-0.02799120545387268,0.1815291941165924,-2.5757405757904053
0.10647760978148367,0.11074685135582203,0.6626907697569313,0.7329657409776792,0.3077034084517717,0.022271654871339863,1.4667222770013026,0.021223939955234528,-0.30287063121795654,-0.9527953267097473,0.09639736264944077,-0.15268470346927643,-0.8066974878311157,-0.40479928255081177,-0.39278268814086914,-3.4038233757019043
0.08118711766340958,0.12027837343929045,0.6143431452394991,0.7755800762648709,0.2772571800331461,0.09038777523526435,1.3272008652377174,0.08681761473417282,-0.27371853590011597,-0.9578835368156433,0.06978558748960495,0.19346140325069427,-0.4601703882217407,-0.9053662419319153,0.6125673055648804,-3.4818735122680664
0.05130152618161287,0.12368376901193252,0.5567380671068024,0.8198252235034492,0.2236964656322296,0.14995889933010878,1.1762392199184928,0.1456751972436905,-0.22183538973331451,-0.9641409516334534,-0.05161558464169502,0.11173076927661896,0.20643675327301025,-0.7379055023193359,0.5838490724563599,-4.015679359436035
0.027784516276657782,0.13052688596474876,0.48696331480695265,0.8631672115460707,0.175996140463635,0.20277048913363302,1.0093466746458868,0.19827303290367126,-0.17508886754512787,-0.9643815159797668,-0.17592503130435944,0.1321982741355896,0.7886894345283508,-0.21655422449111938,0.26650527119636536,-4.380817413330078
0.01532557131334869,0.1324014903151423,0.41163420003684925,0.9015500073615871,0.13706426018089626,0.23028683997808083,0.8407564133473274,0.2261161059141159,-0.13663537800312042,-0.9644699692726135,-0.35872286558151245,0.1790197491645813,1.033454418182373,0.16635867953300476,-0.34327781200408936,-4.085963249206543
0.014694000853940584,0.11712900763013499,0.33850015773453423,0.9335323145908166,0.10693470817863986,0.21151233217673132,0.6843512543700223,0.20873960852622986,-0.10673090070486069,-0.972129762172699,-0.43854832649230957,0.11268286406993866,0.4890305995941162,0.12260878086090088,-1.369763731956482,-3.8049228191375732
0.01735514035555976,0.09315432795661584,0.27241556284491875,0.9575024768566742,0.0840876155196154,0.1703572018533247,0.5471811648265397,0.1689353883266449,-0.08398843556642532,-0.982042133808136,-0.5373182892799377,0.1488558053970337,-0.05964432284235954,-0.03451479971408844,-1.3307230472564697,-3.153961658477783
0.01596254729457223,0.06860039816425259,0.21626227017291086,0.9737914685615124,0.06079718759334392,0.1272786657406131,0.4331965244902116,0.1267007738351822,-0.060759615153074265,-0.9900783896446228,-0.628309965133667,0.12191794812679291,-0.2225150465965271,-0.3835621774196625,-1.4249893426895142,-2.7512505054473877
0.013148671700214793,0.04773386158015985,0.1638570970575676,0.9852408529387013,0.041564247627992906,0.08994851819548765,0.327735780314808,0.08974967896938324,-0.04155215993523598,-0.9950971603393555,-0.6899975538253784,-0.05170673131942749,-0.8633134961128235,0.23521725833415985,-0.5884712934494019,-2.5401713848114014
0.014179731046900653,0.03853851552320575,0.11666597897462733,0.9923219401098836,0.03714252323991334,0.07329275134790642,0.23270097722704128,0.07317662239074707,-0.03713386505842209,-0.9966274499893188,-0.6814358830451965,0.10797801613807678,-0.8325046896934509,-0.2112816870212555,-0.4459003210067749,-2.2690653800964355
0.00618014540636424,0.032318624509522616,0.07310806903781396,0.99678111752255,0.01704683456050698,0.06357760615977422,0.1458840428317137,0.06352552026510239,-0.017045892775058746,-0.9978346228599548,-0.6416032314300537,0.0639721006155014,-0.7229001522064209,-0.32214516401290894,-0.10132467746734619,-2.097111701965332
0.001390543582940352,0.03445790897165357,0.03441132658100031,0.9988125937693985,0.005149292359228747,0.06879344571497188,0.06870004013717083,0.06873824447393417,-0.00514915632084012,-0.9976214170455933,-0.4118776023387909,0.10259348154067993,-0.38887500762939453,-0.07144847512245178,0.31937628984451294,-1.753684401512146
-0.00018819107612520368,0.04489034924532209,0.003871952957703326,0.9989844560860135,-2.8373278584642972e-05,0.0898116697494305,0.007753015239324442,0.0896909236907959,2.848355143214576e-05,-0.9959696531295776,-0.20815390348434448,-0.008187301456928253,-0.12116843461990356,0.1344519555568695,0.776584267616272,-1.3689827919006348
0.0034910388792235496,0.05981592285811548,-0.022369951392880158,0.9979526741145808,0.0042916377702015614,0.11983078745290057,-0.04508162881175783,0.11954304575920105,-0.004291516728699207,-0.9928197264671326,-0.07802634686231613,-0.06984162330627441,0.2337033897638321,0.3210762143135071,0.6983171701431274,-1.2976720333099365
0.00842422131933129,0.07258091812828087,-0.04922542664444943,0.996111486043411,0.00963742309858903,0.14595111465586924,-0.09945940957049552,0.1454266756772995,-0.009637168608605862,-0.9893220663070679,-0.042638055980205536,-0.07746350020170212,0.6266881227493286,0.32685962319374084,0.5846558213233948,-1.3542660474777222
0.010777433993641767,0.07761657333011152,-0.07600308736322388,0.9940237505861019,0.009628001062189452,0.15659005787765712,-0.15337850741702888,0.1559436023235321,-0.009627750143408775,-0.9877190589904785,-0.15359847247600555,-0.02035270258784294,0.9308927059173584,0.07257423549890518,-0.09273450821638107,-1.3046729564666748
0.0038178523759841757,0.06844797734839275,-0.10060876463306749,0.9925614055941214,-0.006194066651320034,0.1370773635511493,-0.20161026936465687,0.13664577901363373,0.0061941249296069145,-0.9906005859375,-0.2808118462562561,0.10584795475006104,0.6404405832290649,-0.536795973777771,-0.7851237654685974,-1.1380950212478638
-0.011339496187345841,0.05593321044513067,-0.11812289041067933,0.9913576532586076,-0.03570456327456423,0.10850251270871075,-0.23524794362620313,0.1082206442952156,0.03569706901907921,-0.9934858083724976,-0.2847680151462555,0.008162252604961395,0.27059975266456604,-0.5094082355499268,-0.6314457058906555,-0.7960453033447266
-0.020109273305012578,0.0498146758829774,-0.13320087023507532,0.9896321269673695,-0.053097228305743024,0.0935070565481356,-0.26509971136313853,0.0932391807436943,0.05307237058877945,-0.9942282438278198,-0.3557374179363251,0.2117917537689209,0.286482572555542,-0.2123054563999176,-0.4312351942062378,-0.5594534873962402
-0.03000463378166444,0.024349726293182265,-0.1357881305965799,0.989984124635806,-0.06606908598357988,0.04016153380901297,-0.27129536296034684,0.04006306082010269,0.06602111458778381,-0.9970136284828186,-0.28464677929878235,-0.16050556302070618,-0.4316704273223877,-0.0359397828578949,-1.3826383352279663,-0.03207802772521973
-0.024613885957631757,0.004364228178858736,-0.14135136571867143,0.9896438551857031,-0.04997253763456222,0.001681750642530676,-0.28369995336244014,0.0016795734409242868,0.04995182901620865,-0.9987502098083496,-0.14937464892864227,-0.07510394603013992,-1.1341603994369507,0.43538254499435425,-0.3741039037704468,-0.45472803711891174
-0.020640091609235307,0.0013255464495807914,-0.1481147561328383,0.9887539573655181,-0.04122028248192732,-0.0034959023331822717,-0.29745962730180037,-0.00349300354719162,0.041208699345588684,-0.999144434928894,-0.0829617828130722,-0.16752377152442932,-1.1771042346954346,0.13867218792438507,0.250582754611969,-0.3382377326488495
-0.017121457473313728,0.0058242232435227245,-0.15509814338669528,0.9877336151020867,-0.03563707330278459,0.006198524943393189,-0.3113945260552537,0.0061944699846208096,0.03562961891293526,-0.9993458390235901,-0.12106168270111084,-0.1406150460243225,-0.6848511099815369,0.16948935389518738,0.19296732544898987,-0.3299867808818817
-0.010013437558023409,0.01424210349576234,-0.160813576011372,0.9868312432432242,-0.024346198334195553,0.024898462477192584,-0.3227760824191977,0.024888429790735245,0.024343879893422127,-0.9993937611579895,-0.05465443432331085,-0.1179981455206871,-0.04954439401626587,0.49546998739242554,0.9325069189071655,-0.23372212052345276
0.006591481887752854,0.029502430769642034,-0.16794050811090738,0.9853335960633715,0.0030803155469509742,0.06039041298506878,-0.337729116593942,0.06035333871841431,-0.0030802227556705475,-0.9981723427772522,-0.139634907245636,-0.14278793334960938,0.9775841236114502,0.8581677675247192,0.5045952796936035,-0.5129937529563904
0.020565697311222954,0.018517372854936008,-0.1800468255477254,0.9832686904186615,0.03378164902744103,0.043859759577904514,-0.36294938831794826,0.04382059723138809,-0.03377513587474823,-0.9984683394432068,-0.091486357152462,-0.1228882223367691,0.7906091213226318,0.734720766544342,-0.6067175269126892,-0.6884400844573975
0.030944017275670616,0.015088813470939473,-0.1935113890307073,0.9804939391982185,0.054868655116976243,0.041639697479646604,-0.3908566934304547,0.041564930230379105,-0.054841041564941406,-0.9976295828819275,0.025597579777240753,0.07807213068008423,0.9847182631492615,0.19762086868286133,-0.0244591124355793,-0.7212016582489014
0.018524221663356533,0.003930214858787766,-0.20959461262786092,0.977605077535427,0.034578132718933605,0.01545940661366613,-0.42266492410851275,0.015449460595846176,-0.03457115963101387,-0.9992828369140625,-0.06987445801496506,-0.1744154393672943,0.12792573869228363,-0.9156864285469055,-0.8997887372970581,-0.9767231941223145
0.007134734390751412,-0.0037093334442720068,-0.22728444298558895,0.9737952706308536,0.015582319364702555,-0.003981528350012688,-0.4585605620805358,-0.003981126006692648,-0.01558161061257124,-0.9998706579208374,-0.11828052252531052,-0.11969880759716034,-0.14463791251182556,-0.13171224296092987,-0.499828964471817,-0.8928369879722595
0.0011205250229505937,0.0200400219005005,0.24768325176354364,-0.968633135316011,0.007756478022296803,-0.039389298365549316,-0.5005267693599758,-0.03937802091240883,-0.007756326347589493,-0.9991942644119263,-0.5008549690246582,0.01963740587234497,-0.9441978931427002,-0.6609406471252441,-1.3037694692611694,-0.9395104646682739
0.015506762792003307,0.025298527274797835,0.25860161021676825,-0.9655282897114427,-0.01686075540178743,-0.056911837745503464,-0.5238644115545262,-0.056873127818107605,0.016860026866197586,-0.9982390403747559,-0.48851558566093445,0.21351799368858337,-0.854690670967102,-0.583518385887146,-0.27103573083877563,-0.26381975412368774
0.018244405714005537,0.022097628582193957,0.2598596139181444,-0.9652211920919009,-0.023737440745173456,-0.05217853395278826,-0.5265942501148836,-0.052140261977910995,0.023735281080007553,-0.9983576536178589,-0.41439104080200195,-0.03769904375076294,-0.26594316959381104,0.1397489458322525,0.41447967290878296,0.15032444894313812
0.009280647538609731,0.012893341574600922,0.25846024981593707,-0.9658913112710057,-0.011263599237150588,-0.029710745439135426,-0.5230908036857934,-0.029704583808779716,0.01126343198120594,-0.999495267868042,-0.08709532022476196,-0.002526400610804558,0.5214901566505432,0.26251062750816345,0.9852417707443237,0.23113572597503662
-0.006199315910775002,0.002621837851249658,-0.2474005470652467,0.9688900288122443,-0.013310592020487452,0.00201329651401727,-0.49999117625968603,0.0020130218472331762,0.013310271315276623,-0.9999094009399414,-0.07865971326828003,-0.13731631636619568,1.0594408512115479,0.13747532665729523,-0.05828050151467323,0.25990670919418335
-0.007938423581109216,-0.0003359528655834945,-0.24339493093115025,0.9698947516335333,-0.015235921740079442,-0.0045165615267297645,-0.49177928966616447,-0.004516115877777338,0.015235405415296555,-0.9998737573623657,0.01920197904109955,0.08163519948720932,0.9625179171562195,-0.12027332186698914,-0.408551424741745,0.22888551652431488
-0.023550160998911693,-0.024734652387253267,-0.2317989318064584,0.9721640549240402,-0.03432905032474828,-0.05907923445789878,-0.46914582880382416,-0.05901017412543297,0.034322381019592285,-0.9976671934127808,-0.2694036364555359,-0.12625248730182648,-0.1990227848291397,-1.032992959022522,-2.269155740737915,0.8691012263298035
-0.02463988783204985,-0.039845061396072294,-0.22170172483797915,0.9739885456473271,-0.030335151648687674,-0.08869969683509725,-0.4489647581237758,-0.08854275941848755,0.03033057600259781,-0.9956104755401611,0.01722736656665802,-0.18699190020561218,-0.023075252771377563,0.701876699924469,-0.9281545281410217,0.08897753059864044
-0.028933342068658472,-0.0678412477492246,-0.21564061044711075,0.9736835444121967,-0.027088494698542135,-0.1451524573552264,-0.43787149157856153,-0.14459030330181122,0.027085259556770325,-0.9891208410263062,-0.030467569828033447,-0.2301279604434967,-1.433988094329834,-0.1851726472377777,-1.0741733312606812,0.16695621609687805
-0.02747788873561514,-0.05388865854471587,-0.21013309080552695,0.9757997608498652,-0.0309832106208282,-0.1170401794232171,-0.4260261939018093,-0.11671718955039978,0.030978331342339516,-0.9926819205284119,0.0794418454170227,0.0732724517583847,-0.7432525753974915,-0.30684328079223633,0.8567817211151123,0.3625986874103546
-0.03244679126839696,-0.03673616784480196,-0.2031510048940948,0.977920003564136,-0.04855382879032458,-0.08523676800447333,-0.411720255338577,-0.0850333422422409,0.048534832894802094,-0.9951953291893005,0.10658331215381622,-0.05682714283466339,-0.27269884943962097,-0.3593587279319763,1.0320470333099365,0.3900487422943115
-0.03250011122520035,-0.01487324753700596,-0.19929772811505894,0.9792869702773397,-0.05775756926752187,-0.04216754068549948,-0.40276077255555426,-0.04208483546972275,0.05772554129362106,-0.9974450469017029,0.05695880949497223,-0.12560005486011505,0.4111797511577606,-0.03585004806518555,1.26773202419281,0.09239627420902252
-0.02249836275793005,4.881900916818242e-05,-0.20120247931263657,0.9792913432240844,-0.044098840618875125,-0.008966674072622667,-0.4054724829486744,-0.008957923389971256,0.04408462718129158,-0.99898761510849,-0.1684708595275879,-0.18614214658737183,1.079367995262146,0.6511065363883972,-0.12809902429580688,-0.2726561427116394
-0.008344504436926881,8.593127594116883e-05,-0.20943251219661232,0.9777875665155008,-0.016355028096643666,-0.0033276271669361247,-0.42203128646891647,-0.0033272644504904747,0.016354378312826157,-0.9998607039451599,-0.0850021243095398,0.026545420289039612,0.711129903793335,0.8734127283096313,0.795115053653717,-0.48630887269973755
0.007223823470714652,0.01019102890267338,-0.21907128852345945,0.9756289574666432,0.009630567925505375,0.02305350137967618,-0.4418711532036447,0.023050298914313316,-0.009630339220166206,-0.999687910079956,-0.16573965549468994,-0.03569815307855606,0.29370638728141785,0.14996379613876343,0.08703214675188065,-0.561736524105072
0.015663498759319373,0.017709124790076462,-0.23095872921201946,0.9726762790465453,0.022292719871893154,0.04170818642835945,-0.4667236050295131,0.041685640811920166,-0.022290796041488647,-0.9988821148872375,-0.1334761530160904,-0.11551690101623535,0.23143573105335236,0.75462406873703,0.24579653143882751,-0.654604434967041
-0.018799478053324874,-0.0012402238771763402,0.24783422157814966,-0.9686192664858049,0.03581198775867591,0.011728706453982623,-0.5011890621440788,0.01172082219272852,-0.03580425679683685,-0.9992901086807251,-0.3352617621421814,-0.12227656692266464,-0.6587758660316467,-0.18587864935398102,-1.346888780593872,-0.8160930871963501
-0.005589626864696706,0.014517462978097008,0.25904518398256615,-0.9657399861577798,0.018318634598879783,-0.025151128195766603,-0.523901583571176,-0.02514435164630413,-0.018317537382245064,-0.9995160102844238,-0.39190673828125,0.1410749852657318,-0.7010117173194885,-0.6684428453445435,-0.6978716254234314,-0.4763396382331848
0.01570032370009579,0.019737654002114555,0.2663245474613675,-0.9635534823874123,-0.019744242419693393,-0.04642505395445008,-0.5397899632491326,-0.04639942944049835,0.019743027165532112,-0.9987278580665588,-0.1934862583875656,0.19276416301727295,-0.27601251006126404,-1.1144777536392212,-0.13281479477882385,-0.046060144901275635
-0.03578142892345313,-0.006895847533960007,-0.26041513600408206,0.9648089244434911,-0.0654997423935894,-0.03201651394737223,-0.5283118578964154,-0.031942497938871384,0.06545298546552658,-0.9973442554473877,-0.040298983454704285,0.06383243203163147,0.31538376212120056,-0.8095627427101135,0.7860000133514404,0.36083418130874634
-0.04002418800708498,0.011330930489284186,-0.2509828414448953,0.9670974579826448,-0.08319826840751109,0.0018317964472955514,-0.5077639655766122,0.0018253638409078121,0.08310238271951675,-0.9965393543243408,-0.09065957367420197,-0.19861657917499542,1.1131142377853394,-0.22828936576843262,0.1007375419139862,0.6656428575515747
-0.04167647779123975,0.006268899785971432,-0.24096241838845495,0.9696189492105756,-0.08394028245639107,-0.007956138257461918,-0.48749045527425666,-0.007928134873509407,0.08384181559085846,-0.9964475631713867,0.0008632242679595947,-0.12340768426656723,0.9686570763587952,0.11991208791732788,-0.7743107676506042,0.40151989459991455
-0.05884661171997274,-0.027323178140663734,-0.22812765480844693,0.9714671308310439,-0.10204576698741026,-0.08044095704142012,-0.4654080025593158,-0.07993630319833755,0.10186882317066193,-0.9915810227394104,0.04492834210395813,-0.10651499032974243,-0.8755301237106323,-0.8734068870544434,-1.0521109104156494,0.5831260085105896
-0.06040964845598879,-0.024616681537813524,-0.2154382275528505,0.9743362777755902,-0.10731775519671975,-0.07449601342327158,-0.4392260866251588,-0.07399903237819672,0.10711194574832916,-0.9914893507957458,0.025919223204255104,-0.020949117839336395,-0.12982177734375,0.04038214683532715,-0.5756809711456299,0.5339780449867249
-0.0703702822130439,-0.04558724641004091,-0.20605956652309143,0.9749407569006852,-0.11870491525871726,-0.11900687297975096,-0.4236611710662168,-0.11789074540138245,0.11842640489339828,-0.985939621925354,0.025399982929229736,-0.15861466526985168,-1.3765312433242798,-0.5610331892967224,-1.0156848430633545,-0.10869644582271576
-0.07509443341670749,-0.01635324901415977,-0.20320115032019717,0.9761161926666824,-0.14041676193881192,-0.06310646775114642,-0.4149230805860761,-0.06244397535920143,0.13995586335659027,-0.988186776638031,0.20055623352527618,0.2772950828075409,-0.5361095070838928,-0.7396823763847351,1.6583871841430664,0.5201528072357178
-0.08285116130536961,0.01463070197140597,-0.1939047015177323,0.977406100573693,-0.16842757740536138,-0.0035808629556819656,-0.3919906188403333,-0.003530270652845502,0.16763246059417725,-0.9858432412147522,0.07714948058128357,0.001775277778506279,-0.05961454659700394,-0.5261597633361816,1.2410297393798828,0.5504269599914551
-0.08154121395410721,0.046651024605398994,-0.1882243356908731,0.9776228773580274,-0.17793222896603803,0.06152774995261684,-0.3749204296553749,0.0605180449783802,0.1769949048757553,-0.9823493957519531,0.06200437992811203,-0.10870765149593353,0.35633471608161926,0.10882502794265747,2.708066940307617,0.4568955600261688
-0.06639483627069478,0.0906924186492884,-0.18596411165406737,0.9761066326766071,-0.1640832370113463,0.15505158540332697,-0.36374554463468367,0.15235672891139984,0.1633480191230774,-0.9747332334518433,-0.2720612585544586,-0.1848476529121399,1.1942169666290283,0.06861227750778198,1.1301227807998657,0.10705837607383728
-0.06887070000054067,0.1036037844598767,-0.18638790657368975,0.9745679774785128,-0.17373197756429434,0.1799277368951653,-0.3622286845511949,0.1762644350528717,0.17285941541194916,-0.9690461754798889,-0.10211752355098724,-0.19587092101573944,0.9207972288131714,-0.3194005787372589,0.5304656028747559,-0.06186354160308838
-0.08459325496165086,0.09232852496626757,-0.18979589973627845,0.9738054317827224,-0.20115573313912333,0.1513256680691986,-0.3696758712450299,0.14770904183387756,0.199801966547966,-0.9686388373374939,-0.1462372988462448,-0.24571318924427032,-0.09928862005472183,-1.24782133102417,-1.7905280590057373,-0.8015660047531128
-0.10064774478432331,0.0878392215153737,-0.20195712378776232,0.9702410266490801,-0.23288403092998627,0.1337973298689668,-0.3947687390350271,0.12979727983474731,0.23078471422195435,-0.9643086194992065,-0.09665720164775848,0.2294938713312149,0.016651911661028862,-0.21840696036815643,-0.5663471221923828,-0.5073837637901306
-0.10932041608933557,0.07530301668343001,-0.21313492814509505,0.9679629337888859,-0.2462157889400065,0.10244429784238149,-0.42077479201242335,0.09918096661567688,0.2437356859445572,-0.9647570252418518,-0.22115804255008698,0.14201489090919495,-0.6740590929985046,-0.3808361291885376,-0.76092529296875,-0.9265503287315369
-0.12584321247393263,0.07389154849367656,-0.227727781154986,0.9627272211999757,-0.27958801976039294,0.08850662196954219,-0.4520883103175702,0.08495871722698212,0.2759597599506378,-0.9574070572853088,-0.2769123613834381,0.663258969783783,-0.6310432553291321,-1.0079009532928467,0.27380305528640747,-0.1887456774711609
-0.1423674922566573,0.07417996308252449,-0.22415518844828497,0.961240530117004,-0.31199134461046074,0.08287591012503931,-0.44515749041118274,0.07878465205430984,0.3069545030593872,-0.948457658290863,-0.17155821621418,0.24123036861419678,-0.3042776584625244,-0.926703691482544,-0.2573961913585663,0.1654321849346161
-0.1542981610774759,0.08771476871387,-0.21977159198370158,0.9592699255020793,-0.34116120626867646,0.106810695357107,-0.43201697225482594,0.10046347230672836,0.3345816433429718,-0.9369964003562927,-0.04287434369325638,0.035766445100307465,0.4713805317878723,-0.5282463431358337,1.0092241764068604,0.3626132905483246
-0.15467196943788605,0.09853861029352333,-0.21152006805315568,0.9600136168594291,-0.34549256892311786,0.13191934413415177,-0.4106802904398168,0.12376426160335541,0.33866024017333984,-0.932733416557312,-0.1301228404045105,-0.4611109495162964,0.9396054744720459,0.15598048269748688,-0.6063530445098877,0.2680777609348297
-0.1542858600428417,0.08228553033268911,-0.20907251690587522,0.9621401878601358,-0.3376773851241159,0.09960703478483846,-0.41095314370225094,0.09382646530866623,0.3312965929508209,-0.938849925994873,-0.0701528787612915,-0.14085154235363007,0.5374091267585754,0.13676810264587402,-1.8515411615371704,-0.0035594701766967773
-0.16347860225686503,0.06373379612233657,-0.2037500903260894,0.9631712245533456,-0.347860572558097,0.05976891341266342,-0.4064303720739767,0.05615546554327011,0.3408873677253723,-0.9384254813194275,0.23801396787166595,0.2330317348241806,-0.7005329728126526,-0.20838090777397156,1.1896660327911377,0.3701332211494446
-0.15843413599974426,0.0642061865681489,-0.19730607136778752,0.9653220364060258,-0.3375925216584764,0.06516077149385037,-0.39212569219980764,0.06143916770815849,0.3312165141105652,-0.9415523409843445,-0.04488445818424225,0.3056683838367462,-0.4314647316932678,-0.001381903886795044,-0.9823256134986877,0.35487884283065796
-0.16448866547893973,0.05754637065701115,-0.19593848598516114,0.965007881862545,-0.3469347775877387,0.049579137781397636,-0.3919510651905427,0.04660599306225777,0.3400168716907501,-0.9392637610435486,0.338706374168396,0.48697876930236816,-1.1085221767425537,-0.543739914894104,0.908179521560669,-0.24118229746818542
-0.16609954929400436,0.09301835675869936,-0.2007193564980475,0.9609736395342494,-0.36460013894951965,0.12027437616975534,-0.3896229189171717,0.11209749430418015,0.35657578706741333,-0.9275170564651489,0.20204807817935944,0.3988833427429199,-0.2240968495607376,-0.19804343581199646,1.6612439155578613,0.06868094205856323
-0.1599040280799812,0.12315234751709862,-0.20326291560271548,0.9580962947006785,-0.36448858622696373,0.18403762582784108,-0.3840977049961509,0.1709783971309662,0.35647156834602356,-0.9185283780097961,0.10565796494483948,0.2197883129119873,0.4403839111328125,0.27689552307128906,1.360131025314331,0.1321689635515213
-0.13942137994017098,0.1426915566577983,-0.2054556822838961,0.9581173084617691,-0.33185529449097223,0.23065369722483953,-0.3836814455599211,0.21614056825637817,0.3257977068424225,-0.9204015731811523,-0.08638736605644226,-0.20336559414863586,1.174956202507019,1.3744618892669678,0.6498783230781555,0.182077094912529
-0.1148576899601712,0.1263286537987712,-0.2126451345515059,0.9620972040910255,-0.27831395304145995,0.20340594434281092,-0.40646470852700956,0.19423292577266693,0.2747349441051483,-0.9416975378990173,-0.16971497237682343,-0.37747514247894287,0.6386441588401794,1.2362887859344482,-0.6692760586738586,-0.7669399976730347
-0.09518943087669157,0.10986232815204619,-0.2321442416899823,0.9617580455216176,-0.23629913461075094,0.1727617335295404,-0.45313161764243404,0.16712649166584015,0.23410627245903015,-0.95773845911026,-0.42204153537750244,-0.047038182616233826,0.5663781762123108,0.9622081518173218,-2.475278615951538,-1.0997521877288818
-0.09141027999941163,0.0961452843280821,-0.26039974385273607,0.9563432262077863,-0.22685233028241575,0.14033317096308912,-0.5156723247528651,0.13628925383090973,0.2249116748571396,-0.9648004770278931,-0.22924774885177612,0.1718771755695343,-0.9032025933265686,0.5530088543891907,0.7184716463088989,-1.8623111248016357
-0.0665199994603925,0.10689146260622814,-0.2916189060460422,0.9482130334188503,-0.18962782423181634,0.1676914906606481,-0.5807458244592277,0.16391466557979584,0.18849346041679382,-0.968298614025116,-0.10133987665176392,0.26205936074256897,-0.2863249182701111,1.1729271411895752,0.2353840321302414,-1.912409782409668
-0.06264002502143903,0.10801600147554974,-0.34005295771289973,0.9320799067012017,-0.1913998202625708,0.16242346051606524,-0.6840284620174836,0.15875712037086487,0.19023337960243225,-0.9688175320625305,-0.27594617009162903,0.897537112236023,-0.7907243371009827,-0.4363923668861389,0.694133996963501,-2.321258783340454
-0.07249822324588644,0.12003161538160367,-0.37279502819217664,0.9172570079503557,-0.22437121848544014,0.171253222992776,-0.7527238418911396,0.16614560782909393,0.22249341011047363,-0.9606728553771973,-0.23826998472213745,0.5787160396575928,-0.2965758442878723,-0.24170076847076416,0.5658417344093323,-1.6423126459121704
0.06809106047363293,-0.12699732509261755,0.4029488049248832,-0.9038073016689882,-0.22738359040067357,0.18027806641651062,-0.8181295696461134,0.17468766868114471,0.22542926669120789,-0.9584705829620361,-0.1805356740951538,0.36038708686828613,0.4094369411468506,0.21640273928642273,0.6402771472930908,-1.2472773790359497
0.05631166048772171,-0.1387993742401615,0.4224499380525811,-0.89392393841631,-0.21971169381331204,0.2069898725488874,-0.8600311581837832,0.20057432353496552,0.21794827282428741,-0.955127477645874,-0.15882286429405212,-0.022540593519806862,0.9862161874771118,0.9074675440788269,0.7469929456710815,-0.86030513048172
0.038131936011801315,-0.13324069413460188,0.4433737157867947,-0.8855578628764968,-0.18677088864295022,0.20722952077053974,-0.9088918439930118,0.20217116177082062,0.18568693101406097,-0.9615857601165771,-0.15434910356998444,-0.30410152673721313,0.8171367645263672,1.2824838161468506,0.23038408160209656,-1.2792749404907227
0.014804644637141881,-0.11983988334678673,0.47257784161297184,-0.8729773736150124,-0.13956826061567276,0.19845966797644854,-0.9784235177562012,0.19524219632148743,0.1391156017780304,-0.9708384871482849,-0.13531732559204102,-0.027556169778108597,1.0335394144058228,1.8296160697937012,-0.37973082065582275,-1.3832626342773438
0.027174236560061807,-0.08707401575992445,0.5053679094854497,-0.8580693201779778,-0.13505376236623862,0.12339885061961724,-1.0561675915993778,0.12196498364210129,0.1346435844898224,-0.9833593964576721,0.06958714127540588,0.8921884298324585,-0.8400493264198303,1.0950270891189575,3.222057342529297,-0.683688759803772
0.005261268513032072,-0.07354635105860792,0.5353530659430903,-0.8414038460408275,-0.08771265863352655,0.11886669473479415,-1.1280908969325345,0.11813096702098846,0.0876002311706543,-0.9891265034675598,-0.08106416463851929,0.19213595986366272,-0.9242978096008301,0.9281084537506104,-0.34086042642593384,-2.0018956661224365
0.002119086183236387,-0.07344832510357731,0.5736115034237901,-0.815825224147791,-0.08783210254966277,0.11813989240244624,-1.2204172856680195,0.1174108013510704,0.08771920204162598,-0.9892017245292664,-0.03902199864387512,0.7673429250717163,-1.2474627494812012,-0.1453966498374939,1.2296199798583984,-1.739219069480896
-0.012863975680738493,-0.09380117120020413,0.5998970762840293,-0.7944554490067175,-0.09223310026280762,0.1659383937953749,-1.2858448754369538,0.1644756942987442,0.09210236370563507,-0.9820717573165894,-0.08674231171607971,0.3633660078048706,-0.46032029390335083,0.5177301168441772,1.0733013153076172,-1.6583359241485596
-0.03412963383572147,-0.10093527472669556,0.6287195178470547,-0.7702980912420341,-0.07440861422572026,0.20030371495977564,-1.3616054582565942,0.1984163075685501,0.07433994114398956,-0.9772945046424866,-0.08715219050645828,0.12096850574016571,0.1584029346704483,0.9654239416122437,1.0489758253097534,-1.91544771194458
-0.05982287741682734,-0.10686121846345133,0.65884204842375,-0.7422460547141945,-0.05202620558878124,0.24008380059163664,-1.4456038646946878,0.23746216297149658,0.05200270190834999,-0.9700038433074951,-0.1335967779159546,-0.040329769253730774,0.8546956777572632,1.1134380102157593,0.8809621930122375,-1.9706202745437622
-0.07578936287801312,-0.10149786550434663,0.6925146932319171,-0.7101955207446992,-0.03293294705574211,0.25192878147034503,-1.5414174318158176,0.2491370290517807,0.03292694687843323,-0.9679083228111267,-0.20628811419010162,-0.08451634645462036,0.9357738494873047,1.080002784729004,0.18439824879169464,-2.3813915252685547
-0.08161020569979537,-0.08682523075899855,0.7281616593076485,-0.6749680623639756,-0.016277762209343568,0.2383407809456753,-1.6446324158869827,0.2360592484474182,0.01627698726952076,-0.9716023206710815,-0.2815355360507965,-0.03465978428721428,0.49558302760124207,0.8973289728164673,-0.4150237739086151,-2.4528934955596924
-0.07884383190167522,-0.08211405948919145,0.7624013142754302,-0.6370127401965443,-0.02476121311420637,0.22684618292667696,-1.7466999203592408,0.2248365730047226,0.024758614599704742,-0.9740818738937378,-0.37045755982398987,-0.03612221032381058,0.09070207178592682,0.11279645562171936,0.16783413290977478,-2.7002029418945312
-0.056965041829372676,-0.07475871679996268,0.7976438529553143,-0.5957604543520377,-0.05140926545583625,0.18117987977983227,-1.8538930737452035,0.17995209991931915,0.05138654261827469,-0.9823322296142578,-0.369340181350708,-0.21453015506267548,-1.252670407295227,-0.36203062534332275,0.3793241083621979,-3.027003765106201
-0.06847039596862887,-0.07133709860945778,0.8263338571511092,-0.5544324912151478,-0.041984428465062416,0.19363945501315677,-1.9555840014978887,0.1922619342803955,0.04197200760245323,-0.9804456830024719,-0.41845589876174927,0.03011815994977951,0.25146549940109253,0.9540945291519165,-1.3075072765350342,-2.4654862880706787
-0.04929823783678796,-0.05994887308784717,0.8570236948563784,-0.5093978964462174,-0.052554561244465205,0.14629775626910513,-2.065186542843117,0.14557509124279022,0.05253027379512787,-0.9879516363143921,-0.6019164323806763,0.22267422080039978,-0.6263405680656433,0.022270619869232178,-0.8405380249023438,-2.606656312942505
-0.03266147422177225,-0.05957178884371644,0.8812697309317536,-0.4677052576681266,-0.07451467942559549,0.11385227120251237,-2.161507258107491,0.11329114437103271,0.07444563508033752,-0.9907688498497009,-0.6163716316223145,0.13984711468219757,-0.6375317573547363,-0.16185227036476135,-0.690433144569397,-2.3095786571502686
-0.012974752459140744,-0.05561902221419852,0.9029057029919686,-0.4260275960197192,-0.08950170471155708,0.07116509167197195,-2.256669676796543,0.07082037627696991,0.08938214927911758,-0.993476390838623,-0.6488423943519592,-0.01191304624080658,-0.6298097372055054,-0.024938076734542847,-0.7499129176139832,-2.4794509410858154
-0.00013952657372021744,-0.05008114394941529,0.9224087976160082,-0.38295408917383655,-0.09241520124765853,0.03879017157812072,-2.352772759787678,0.0386149138212204,0.09228359162807465,-0.9949837327003479,-0.539795458316803,0.028180614113807678,-0.2864711880683899,0.14822006225585938,-0.45492902398109436,-2.243920087814331
0.008252508244293329,-0.043894747203109354,0.9378985178270505,-0.3440226888519319,-0.08812977443630071,0.014779441133337616,-2.437813541599421,0.014721511863172054,0.088015615940094,-0.9960103034973145,-0.35086435079574585,-0.017930075526237488,0.009321946650743484,0.27612313628196716,-0.1727302074432373,-1.9193933010101318
0.00751961280448048,-0.03590443119256292,0.9491737843671801,-0.3126078729713263,-0.0729250895775798,0.008195049788111456,-2.504976058630715,0.008173150010406971,0.07286034524440765,-0.9973086714744568,-0.19463631510734558,-0.18935243785381317,0.20550203323364258,0.545042097568512,0.22723673284053802,-1.529901146888733
-0.004697911461610919,-0.02776016211383171,0.9578104943857586,-0.2860184106133392,-0.0505120480885974,0.024913602939192335,-2.560588518178076,0.024879230186343193,0.050490450114011765,-0.9984146356582642,-0.17053911089897156,-0.19803489744663239,0.6129102110862732,0.7202898263931274,0.5864312648773193,-1.2139588594436646
-0.014500728607178307,-0.01513319052565503,0.9642645289201287,-0.26411127932345074,-0.02152684826979974,0.03597486166339707,-2.606520423604792,0.035958752036094666,0.02152506448328495,-0.9991214275360107,-0.20680096745491028,-0.18259936571121216,1.0179510116577148,0.7243483066558838,-0.230576753616333,-1.0264784097671509
0.0018374235455762443,-0.001922236705760135,0.9699666903619828,-0.24322367218323956,-0.004622837420849492,-0.0026294434561491917,-2.6502212095812103,-0.002629421651363373,0.0046227010898292065,-0.9999858736991882,-0.16830840706825256,-0.18635383248329163,0.3962613344192505,0.19934603571891785,-0.941043496131897,-1.1019811630249023
0.021278472357101664,0.0064406095914047385,0.9738224152836575,-0.22622073787112554,0.0029167606773322753,-0.0443716529804594,-2.6850210581013534,-0.04435690864920616,-0.0029168762266635895,-0.9990115165710449,-0.19530874490737915,-0.16158509254455566,0.16311374306678772,0.23939193785190582,-1.135189175605774,-0.6654424667358398
0.042869602656049714,0.011006628073090103,0.9756233821984702,-0.2149422454533097,0.003047674819334492,-0.0884966298661666,-2.7077606079718106,-0.08838074654340744,-0.003047789679840207,-0.9960821270942688,-0.07555514574050903,-0.21438412368297577,-0.1287989318370819,-0.24849754571914673,-1.0689959526062012,-0.41846925020217896
0.07510331642732279,0.012350390588750839,0.9760313915832897,-0.20388683064275737,-0.0065164626077722195,-0.1522330895057266,-2.730224873865865,-0.1516425460577011,0.006516295950859785,-0.98841392993927,-0.10915745794773102,-0.3496650159358978,-1.223963737487793,-0.550957441329956,-1.34315824508667,-0.8319763541221619
0.08210257229719063,0.0018786113721312653,0.9774764596323049,-0.19441065275123692,-0.028254391706513126,-0.16200926750175812,-2.7512298385487366,-0.16123709082603455,0.02825051173567772,-0.9865112900733948,-0.12278125435113907,-0.1455010175704956,-0.9598966836929321,-0.7000604867935181,0.23350459337234497,-0.11086458712816238
0.08357819545913257,-0.00985817396111846,0.9776777694441158,-0.19251951628110303,-0.05147983798717845,-0.16052964271882336,-2.756879392763163,-0.15962928533554077,0.05145698040723801,-0.9858350157737732,-0.045068223029375076,-0.21938170492649078,-0.4800686836242676,-0.39627283811569214,0.21376872062683105,-0.016659431159496307
0.06787538033018693,-0.011486075782747067,0.9789613027669801,-0.19208317695235066,-0.048583394822123746,-0.12899137014589493,-2.757231409425334,-0.1284821629524231,0.048564162105321884,-0.990522027015686,0.05946388840675354,-0.3148380219936371,0.5931557416915894,0.6186014413833618,1.0239349603652954,-0.011724241077899933
0.06058818262203076,0.00548624862636496,0.9803404014902826,-0.1877014686366412,-0.011988486528029578,-0.12115853026318205,-2.763967656166236,-0.12085362523794174,0.01198807917535305,-0.9925979375839233,-0.039219483733177185,-0.24984633922576904,1.1899492740631104,0.9569461941719055,-1.0854302644729614,-0.3997156620025635
0.08111351768148295,0.02827714141916446,0.9799021253882616,-0.18003629468602605,0.026213909736591264,-0.1700245783928742,-2.7759539122042827,-0.16914843022823334,-0.026211025193333626,-0.9852420091629028,0.1863286942243576,-0.10719015449285507,0.7687671184539795,0.8455101251602173,-0.7855391502380371,-0.37352174520492554
0.09576540907019107,0.037336096725506196,0.9800380175748692,-0.17017829195708128,0.04059835257531221,-0.20195027096226595,-2.7936182926407054,-0.20041504502296448,-0.04058731719851494,-0.9788699746131897,0.011835217475891113,-0.24511724710464478,0.196609765291214,-0.3711835443973541,-0.9370829463005066,-0.7113707661628723
0.11508628652390471,0.03253305053190655,0.9805283580271696,-0.15575953522601627,0.027951223677091783,-0.23816266354910823,-2.823175477150891,-0.23582537472248077,-0.027947701513767242,-0.9713935256004333,-0.13518795371055603,-0.20127606391906738,-0.09748765081167221,-0.42077571153640747,-1.1281349658966064,-0.582808256149292
0.12985176435418488,0.030983952570449443,0.9810263923439236,-0.14059119406866705,0.024282507469812625,-0.2667169085571545,-2.8536526726857123,-0.26348811388015747,-0.024280238896608353,-0.9643570184707642,-0.28081464767456055,-0.32148313522338867,-0.332401305437088,-0.27182096242904663,-1.1286207437515259,-0.9307969212532043
0.14892258536347383,0.023202639589762653,0.9810269711291675,-0.1219423842007069,0.009205010229713553,-0.3024559096656776,-2.892857041374261,-0.29785287380218506,-0.009204997681081295,-0.9545674324035645,-0.3020760416984558,-0.01678900420665741,-0.7629666328430176,-0.7422370910644531,-0.4637071490287781,-0.6405339241027832
0.1620553072932068,0.010126248619103094,0.9805551360536386,-0.1102145520146821,-0.015863681362758588,-0.3258146891570337,-2.9203394083008796,-0.32004040479660034,0.015862897038459778,-0.9472711086273193,-0.18908050656318665,-0.021332629024982452,-0.429605096578598,-0.698108434677124,-0.4357855021953583,-0.2742609977722168
0.17029254399446045,0.002667038986060835,0.9797799554362732,-0.10499812308243935,-0.030539319172271675,-0.3409838328578411,-2.9333356687039314,-0.33425846695899963,0.030534453690052032,-0.9419866800308228,0.043046291917562485,-0.048281263560056686,0.0767623633146286,-0.21398140490055084,-0.16590289771556854,-0.15167564153671265
0.16645940643879412,-0.0015781891775613745,0.9805945419918501,-0.10355367747945807,-0.037578938821851315,-0.33245218754182626,-2.9374722055057165,-0.3261314630508423,0.03756997361779213,-0.9445775747299194,0.3118271827697754,0.08260467648506165,0.7191715836524963,-0.22276291251182556,0.7363393902778625,0.1210971474647522
0.15967079810754697,-0.007284782284405094,0.980900575299273,-0.11084373503913587,-0.049708778438704415,-0.31731087694044513,-2.9244983460915046,-0.3116273581981659,0.0496881902217865,-0.9489043354988098,0.14594051241874695,0.018317312002182007,0.9984945058822632,-0.212997168302536,-0.427103728055954,0.6846879124641418
0.17075075074599955,-0.012309314265552278,0.9769952069777227,-0.12717389973792387,-0.06753368266740822,-0.3376488551339802,-2.894226648255184,-0.33051443099975586,0.06748224049806595,-0.9413853287696838,0.07708259671926498,0.019848480820655823,0.5629259347915649,-0.15993216633796692,-1.249753475189209,1.0718467235565186
0.18660428460716824,-0.016384400314412132,0.9707189026045163,-0.15038393550455967,-0.08804758652133267,-0.36692022536391555,-2.8505431230581757,-0.35735267400741577,0.0879337415099144,-0.9298207759857178,0.16617044806480408,-0.26025545597076416,-0.1993551254272461,0.39814770221710205,0.35245615243911743,1.1724308729171753
0.19325465879137552,-0.012814323379476834,0.9652924342018193,-0.17521180895304087,-0.09259238329940783,-0.3792133513352608,-2.800261055138048,-0.36860406398773193,0.09246000647544861,-0.9249768853187561,-0.0874110758304596,-0.1424080729484558,-0.49757176637649536,-0.10487067699432373,-1.4004305601119995,1.3540691137313843
0.2134249579653617,-0.011341182665108819,0.9568780567379562,-0.19673727410782132,-0.10587926084366187,-0.4183528144651988,-2.75853397532957,-0.4039808213710785,0.1056814193725586,-0.9086423516273499,-0.10343559086322784,-0.5395218133926392,-1.84498929977417,0.3627038598060608,-0.4058671295642853,0.6139167547225952
0.19289466046898657,-0.0024985577199867002,0.9578652471161087,-0.21279026692290298,-0.08698844105514504,-0.37886840379832143,-2.721080165471171,-0.36847081780433655,0.08687864989042282,-0.9255708456039429,0.1334500014781952,-0.10475984215736389,-1.1076769828796387,0.5990451574325562,1.289114236831665,0.7488790154457092
0.15897558356461586,-0.0025116935528203964,0.9596775140353732,-0.231818224982412,-0.07860863980210063,-0.3098414562793408,-2.679839287438858,-0.30396607518196106,0.07852758467197418,-0.9494408965110779,0.1867409646511078,-0.16131216287612915,-0.08320994675159454,0.4234926104545593,1.8775825500488281,0.9394352436065674
0.13721692469026817,-0.004373634813907883,0.9583804047436655,-0.2503188255114879,-0.07715569921918096,-0.26468026882679235,-2.6409048562575324,-0.2608224153518677,0.07707904279232025,-0.9623047709465027,0.14868006110191345,-0.12678362429141998,0.3462909758090973,0.19312359392642975,0.6263284683227539,0.9268071055412292
0.11325048395928312,-0.004252166243908472,0.9565918655667136,-0.2684925574369022,-0.0690037468024017,-0.2165864142552909,-2.60182634261246,-0.21438562870025635,0.06894887983798981,-0.9743124842643738,0.20645925402641296,-0.21179507672786713,1.1806951761245728,0.7370666265487671,1.1662601232528687,0.7930129766464233
0.11154624344788171,0.007144023289041164,0.9526212510378,-0.28287668671012056,-0.0495167993871332,-0.21856621175208926,-2.569722302369688,-0.21656440198421478,0.049496445804834366,-0.9750127792358398,0.16782253980636597,-0.11099119484424591,0.9803292751312256,0.42209482192993164,-0.8349041938781738,0.6505491733551025
0.11966746919737188,0.01270997980456282,0.9477551062549068,-0.2954295344928435,-0.04663161120888606,-0.23680267578780648,-2.54280174941882,-0.23434072732925415,0.04661459103226662,-0.9710363149642944,0.4265872836112976,-0.11715947091579437,0.7363990545272827,0.06119191274046898,0.32486850023269653,0.5748324990272522
0.13587823128212526,0.013205111085363501,0.9438347063243385,-0.30089661045058186,-0.05687437107373266,-0.26806723374280583,-2.5320316227423594,-0.2644399404525757,0.0568435937166214,-0.9627254605293274,-0.08124139904975891,-0.28236818313598633,-0.19623659551143646,-0.707472562789917,-2.507504463195801,0.056019507348537445
0.14727573704840577,0.017838230897047322,0.9408778711969208,-0.30453334515138986,-0.05616307342279955,-0.29261437457723677,-2.523815187962473,-0.2880016565322876,0.05613343045115471,-0.9559833407402039,0.1105266660451889,-0.13928449153900146,-0.13688920438289642,0.9058817625045776,-0.3644799590110779,0.31432729959487915
0.16098915064007432,0.02952188764629762,0.9375848672664324,-0.3068318329908528,-0.0434483108203952,-0.3260469634863684,-2.516195339801854,-0.31999850273132324,0.04343452304601669,-0.9464219212532043,-0.10209545493125916,-0.15055125951766968,-1.5065577030181885,-0.049360502511262894,-0.23424756526947021,0.029032403603196144
0.156647049540856,0.02519533151302625,0.9364354293604242,-0.3129149268825122,-0.05086873332880094,-0.3147177467446251,-2.504685416511345,-0.3091476857662201,0.05084667727351189,-0.9496538043022156,-0.07077999413013458,0.046850547194480896,-0.9859753847122192,-0.42191198468208313,0.5539441108703613,0.4738689064979553
0.14272135094130184,0.00965343782267331,0.9353677400133861,-0.32345732119682946,-0.0743379510271495,-0.2775451425431431,-2.4861099279625645,-0.273238867521286,0.0742693841457367,-0.959074854850769,0.02511049062013626,-0.07986745983362198,-0.117265485227108,-0.4208938777446747,0.8931001424789429,0.6787901520729065
0.12127368594436486,-0.007395768407063507,0.9338949101663748,-0.33627142159740925,-0.09552068255471229,-0.22443372743270185,-2.4611226478804475,-0.22153981029987335,0.09537536650896072,-0.970475971698761,0.23847757279872894,-0.1310046911239624,0.603264331817627,-0.15509003400802612,1.6487525701522827,0.8991920948028564
0.10213513968752619,-0.011965341029275722,0.9313139556114775,-0.3493988994974293,-0.09379626099330514,-0.18371306905338267,-2.4324037283401685,-0.18187843263149261,0.09365867078304291,-0.9788504838943481,0.1283697485923767,-0.463615357875824,0.9018939137458801,0.5037354826927185,0.2373470813035965,0.4481585621833801
0.09459186804450499,0.005918316059451171,0.9307415037131008,-0.35318229223566755,-0.055828497509283724,-0.18153842469086365,-2.4213195293858347,-0.18026167154312134,0.05579938367009163,-0.9820346832275391,0.15115773677825928,-0.11055248975753784,1.0463292598724365,1.1449376344680786,-0.4419049918651581,-0.019300654530525208
0.11839819279985841,0.01862670187322526,0.9247384569534682,-0.3612392645401064,-0.05111274963139,-0.23489005655292008,-2.4028028514651254,-0.23243214190006256,0.05109038203954697,-0.9712698459625244,-0.014474795199930668,-0.021139174699783325,-0.09123797714710236,-0.7749468088150024,-2.581296443939209,1.0230296850204468
0.12475380109063054,0.019661746002924422,0.9183305160380478,-0.3751254357962824,-0.0575163920532875,-0.24678294493564606,-2.3731265890622635,-0.2438817173242569,0.057484570890665054,-0.96809983253479,0.3403061330318451,-0.27074557542800903,0.04859641566872597,1.2665488719940186,0.7232669591903687,0.453564316034317
0.14780327219543124,0.036101288277775506,0.91085275593567,-0.38366423268013866,-0.04766578980165675,-0.3018564655862304,-2.3515237322108122,-0.2969556152820587,0.0476476289331913,-0.9537017941474915,0.05668354779481888,-0.3216824233531952,-1.4618899822235107,-0.2753733694553375,-1.8148918151855469,0.2428824007511139
0.13120071666870303,0.0362949434807138,0.9091196290911601,-0.39366318178111376,-0.037313550054254595,-0.27060692992062574,-2.3293920672934614,-0.2671302855014801,0.03730477765202522,-0.9629380702972412,0.2067587971687317,-0.14681455492973328,-1.1372212171554565,0.6855601072311401,1.897362470626831,0.369662880897522
0.09928305180034752,0.029809587492543838,0.9086626515812166,-0.40445821663342396,-0.026140951651161558,-0.2060683001063434,-2.3067296406418833,-0.2045430988073349,0.026137864217162132,-0.9785085320472717,0.15688839554786682,-0.008026208728551865,-0.4023033082485199,0.16400916874408722,1.5230927467346191,0.6228263974189758
0.0656728856398773,0.018768076417319594,0.9058349769106991,-0.41808844693611397,-0.020914113995836005,-0.1351111847731178,-2.2781726712739907,-0.13467106223106384,0.020912479609251022,-0.9906696677207947,0.19098541140556335,-0.09658034145832062,0.18928664922714233,0.34030041098594666,2.0001399517059326,0.6657868027687073
0.018733799899478674,0.008342995611129137,0.9029711475483114,-0.42921158095055045,-0.001014559276242201,-0.041005493840995055,-2.254174215298325,-0.040994033217430115,0.0010144524276256561,-0.9991588592529297,0.1412622332572937,-0.2525201439857483,1.2977149486541748,0.7961201071739197,1.7795205116271973,0.377063512802124
0.003919395370287231,0.02071250402335322,0.9027107462598112,-0.42973139821558654,0.034032794682229216,-0.024894772676588742,-2.252567009673733,-0.024877840653061867,-0.03402632847428322,-0.9991112351417542,0.09138135612010956,-0.1521587371826172,0.9871521592140198,0.7136640548706055,-0.5494839549064636,-0.2388008087873459
0.0015238598273111996,0.026804380744952398,0.9051636007434718,-0.4242146208746384,0.04724939113145881,-0.025531570358668706,-2.2644626079146324,-0.025500357151031494,-0.04723191633820534,-0.9985584020614624,0.13139519095420837,0.07036704570055008,0.6830143332481384,-0.1843341886997223,-0.2534541189670563,-0.3041720390319824
0.016644705567434595,0.020949864058113058,0.9115914446560756,-0.4102258092005679,0.02454172155321659,-0.04756694640531855,-2.2952834412567853,-0.04753473773598671,-0.024539364501833916,-0.9985681176185608,0.11473120748996735,-0.03357262164354324,-0.6375274658203125,-0.04603785276412964,1.890552043914795,-0.7827671766281128
0.00926818063231715,0.02938122796998486,0.9156094370663781,-0.4008867847510275,0.04638911298580253,-0.04058394658104436,-2.315266163581972,-0.04052920639514923,-0.046372584998607635,-0.9981017112731934,0.08475558459758759,-0.11367850005626678,-0.3992958664894104,0.19409985840320587,-0.6386163830757141,-0.5878173112869263
0.020439206442544187,0.03380264954601361,0.922866645225071,-0.3830887047985291,0.04674764206367901,-0.06373687905855047,-2.3531788023872893,-0.06362418830394745,-0.04673072695732117,-0.9968792200088501,-0.18446773290634155,0.21551190316677094,-1.2209290266036987,-0.16752216219902039,0.3934990465641022,-0.7468770146369934
0.015252490654975194,0.02533667021934023,0.9272805356005175,-0.3731975368691843,0.035611544885737104,-0.047245359069200896,-2.3754929406678658,-0.04719787836074829,-0.03560412675142288,-0.9982508420944214,-0.09748942404985428,0.08683507144451141,-0.34717389941215515,-0.5396788120269775,0.256698340177536,-0.4767305552959442
0.008588449288260172,0.014348975759826917,0.9315829438019733,-0.36314417414670097,0.020498266969679928,-0.02643182947370703,-2.3979323850092107,-0.02642323635518551,-0.020496943965554237,-0.9994406700134277,0.023697152733802795,-0.023676102980971336,0.0029908218421041965,-0.20814698934555054,1.098605751991272,-0.5426207780838013
-0.026388268132302176,0.0018801052835377302,0.9343199097673398,-0.35545267025568117,0.022274642257398357,0.04800392984782216,-2.4150646498801702,0.047973550856113434,-0.02227291278541088,-0.9986002445220947,0.11367040872573853,-0.013433746993541718,1.2327330112457275,0.190371572971344,1.8160443305969238,-0.37784016132354736
-0.027552346891997113,0.0018564557673503587,0.9373890306097534,-0.3471876108422882,0.022614036925673653,0.05039967388063085,-2.432739197487093,0.05036541819572449,-0.022612223401665688,-0.9984748363494873,0.014916375279426575,-0.08042223006486893,0.8009229302406311,-0.31718239188194275,-0.45423462986946106,-0.5336185693740845
0.002391728190413825,0.007440812347871771,0.9417896367632836,-0.336112096694977,0.01240790073905465,-0.009507778841795758,-2.455940462454766,-0.009506935253739357,-0.012407696805894375,-0.9998778104782104,-0.3964710235595703,-0.027674414217472076,-0.013211697340011597,-0.5484225153923035,-4.744178771972656,-0.7718252539634705
-0.0011144646289537148,0.007591640281254218,0.9476368370094745,-0.3192579742835774,0.015100413273124258,-0.002735483204511464,-2.4916594984872606,-0.0027351961471140385,-0.015099954791367054,-0.9998822212219238,-0.3241267800331116,-0.09700997918844223,0.5362070798873901,1.375698447227478,-0.8392506837844849,-1.351076364517212
0.009837144552421417,0.018953695229809296,0.955403810064084,-0.2945296902148413,0.03042689763266595,-0.02998010817189302,-2.543069374310944,-0.029961762949824333,-0.03042231872677803,-0.9990879893302917,0.010081201791763306,-0.10634535551071167,-0.8200147151947021,0.06201339140534401,-0.44681599736213684,-1.6165486574172974
-0.005788449349337824,0.009984287129721556,0.9657796543310848,-0.259107159960781,0.022286745010256293,0.006008260885210671,-2.617428558435913,0.00600671861320734,-0.022285018116235733,-0.9997336268424988,-0.05956581234931946,0.06890620291233063,-0.5992195010185242,-0.40672194957733154,1.275142788887024,-2.095827341079712
-0.028807992468001857,-0.005507797231255448,0.9766013673342917,-0.21304862817739306,0.0015171625196462666,0.0586483901125111,-2.7120612345828854,0.05861470103263855,-0.0015172817511484027,-0.9982795119285583,-0.025757070630788803,-0.019518453627824783,-0.1133732870221138,-0.3587898015975952,1.194518804550171,-2.661693572998047
-0.060274739452823384,-0.014076770050117473,0.9853352768890374,-0.1590069084352849,-0.008572581274032416,0.12357708102136561,-2.821074093955864,0.12325826287269592,0.008572355844080448,-0.9923375844955444,-0.06835773587226868,0.10466314107179642,0.7901391983032227,0.2736196517944336,1.5983788967132568,-2.7343878746032715
-0.07429057330873272,-0.014059517539593296,0.9915594775322834,-0.10532420226165082,-0.012232810080573659,0.15087161593117102,-2.9290202208696647,0.1502886712551117,0.012232386507093906,-0.9885664582252502,-0.22114089131355286,0.03787517920136452,1.0555344820022583,0.21585538983345032,-0.13616988062858582,-2.686840772628784
-0.06685931451239055,-0.01275922840793244,0.9963685951877463,-0.05115391462458532,-0.01858662778218362,0.13497107969227237,-3.037745757840661,0.1345384418964386,0.018585441634058952,-0.9907340407371521,-0.2869127094745636,0.17706367373466492,0.9011497497558594,0.1523529440164566,-1.0585296154022217,-2.5397634506225586
-0.046699645280011755,-0.012652754765765816,0.9988288815248708,-3.575289675604443e-05,-0.02527522552562774,0.09345660477936762,-3.140339072708378,0.09329085797071457,0.025272423401474953,-0.9953181147575378,-0.31450819969177246,0.047525376081466675,0.10613711178302765,0.19787687063217163,-0.685168445110321,-2.5442464351654053
-0.03435711617295692,-0.010843553710844086,0.9981533933221315,0.04890662681865328,-0.02501024847185273,0.06759929840965485,3.0445224575588226,0.06752675771713257,0.02500753477215767,-0.9974040389060974,-0.3784985840320587,0.24788400530815125,-0.33096903562545776,0.29387784004211426,-0.5069400668144226,-2.1497204303741455
-0.019218768897377166,-0.011682083788641455,0.9958067471357134,0.0886747071490229,-0.026677797462636873,0.036225358484555624,2.964448259426949,0.036204613745212555,0.026674531400203705,-0.9989883303642273,-0.5488713979721069,-0.04920037090778351,-1.0650023221969604,0.07530190050601959,-0.876614511013031,-1.9285459518432617
-0.0017926636024269658,-0.008143562283363132,0.991942811121881,0.12641210104527062,-0.016609888608106554,0.001497757071943624,2.888093819277658,0.0014976238599047065,0.016609029844403267,-0.999860942363739,-0.8029077649116516,0.08737993240356445,-1.1019490957260132,0.30443423986434937,-0.9428502321243286,-1.764623761177063
0.02181342706544555,-0.0065562316820516236,0.987462441176256,0.15620260777760936,-0.006133475155296691,-0.04514426217973849,2.8276823900831265,-0.045127999037504196,0.006133346352726221,-0.99896240234375,-0.580021321773529,0.1570083200931549,-0.6490725874900818,0.16124412417411804,-1.1058456897735596,-1.2616205215454102
0.03825522670285325,-0.0014950440532932549,0.9834820267609717,0.17691105528334203,0.010595045364283668,-0.07585260559002076,2.7860367707075517,-0.07577554881572723,-0.010594932362437248,-0.9970685839653015,-0.29502609372138977,0.06106860190629959,-0.019773881882429123,0.49693769216537476,-0.6091989278793335,-0.8565173745155334
0.04488759867225455,0.009648070385715937,0.9805655263344109,0.1907440651572123,0.036053026427716024,-0.08450523012044546,2.7588666704756384,-0.08434975147247314,-0.03604529798030853,-0.9957840442657471,-0.16977989673614502,0.026278357952833176,0.3747093379497528,0.6367807984352112,0.39906981587409973,-0.561689555644989
0.04379686738240426,0.024847257412629678,0.978756083870113,0.1987484588305559,0.06609604348400765,-0.0760956085892424,2.743432912134511,-0.07585609704256058,-0.06604800373315811,-0.9949288964271545,-0.1384768933057785,-0.1703435182571411,1.0774297714233398,0.8135287761688232,-0.5520179271697998,-0.40664422512054443
0.05852400169514869,0.037024713727886766,0.9756875968658544,0.20793714110438827,0.09673855002189916,-0.09943255719424482,2.72645554295002,-0.09880456328392029,-0.09658780694007874,-0.9904082417488098,-0.008796051144599915,0.021324239671230316,0.8701775670051575,0.49563270807266235,-0.7787432670593262,-0.44604429602622986
0.07833787831369908,0.03378240082092136,0.9732921189657937,0.21313010151992964,0.09931579737770893,-0.1392243747892981,2.717371514063867,-0.1380910873413086,-0.09915268421173096,-0.9854438304901123,-0.03525097668170929,-0.02895478531718254,0.16711467504501343,-0.3421887755393982,-0.7412083148956299,-0.10286033898591995
0.08945215351431753,0.02794701583588767,0.9720566399458116,0.21522854425175966,0.0929713559762069,-0.16330209905775628,2.71340590926425,-0.16187502443790436,-0.09283754974603653,-0.9824345707893372,-0.01876252330839634,0.05973045155405998,0.28605425357818604,-0.1828204244375229,-0.682394802570343,-0.009085220284759998
0.11207692250761657,0.009273994429647476,0.9708988173704508,0.2114433287306841,0.06545077529321953,-0.21583938891637716,2.7198205958598893,-0.213708758354187,-0.06540413200855255,-0.9747055172920227,-0.04908859729766846,-0.10417482256889343,-0.5380875468254089,-0.8456024527549744,-1.330620288848877,0.45455291867256165
0.12049483714688375,-0.003681479291826433,0.9708144022766118,0.20733275171513305,0.042830079564055275,-0.23793775011006804,2.72590321936599,-0.23548272252082825,-0.04281706362962723,-0.9709349274635315,-0.057278022170066833,-0.10386581718921661,-1.3639012575149536,-0.4325372576713562,0.46634769439697266,0.16818176209926605
0.10728181957839995,-0.016221421170250935,0.9733218451855894,0.20216864525358988,0.011800986984566924,-0.21711515044627017,2.7332830983062553,-0.21539829671382904,-0.011800793930888176,-0.9764549732208252,-0.020870976150035858,-0.25124654173851013,-0.801276683807373,-0.7236815690994263,0.8143647909164429,0.35834404826164246
0.09030900915290489,-0.02678107894122528,0.9754153804155256,0.19922853713948752,-0.016261805758343104,-0.18797852297510984,2.7371023451163654,-0.18684861063957214,0.016261005774140358,-0.982254147529602,-0.03097415715456009,-0.16664621233940125,-0.06043687462806702,-0.7980155348777771,0.6942365765571594,0.1596086323261261
0.07033090131429547,-0.04358993372538312,0.9767573223018453,0.1977337702978919,-0.057371453006280514,-0.15551173733468757,2.7376421803951043,-0.15463075041770935,0.057339899241924286,-0.9863069653511047,0.060529500246047974,-0.18699485063552856,0.7227372527122498,-1.1459741592407227,1.1138010025024414,0.1826796978712082
0.0578967169129757,-0.06443875752829355,0.9765036166652686,0.19732316602686215,-0.10318363212715839,-0.13969775798080863,2.7355948958078957,-0.13850313425064087,0.10300054401159286,-0.9849912524223328,-0.017065390944480896,-0.37380510568618774,0.7802325487136841,-1.066204309463501,0.004156738519668579,-0.011951252818107605
0.04326212789540644,-0.08497465470980368,0.9744488146301586,0.2033651311520231,-0.14855670248791494,-0.12049046136273871,2.7211266357406787,-0.11887513101100922,0.14801079034805298,-0.9818153977394104,0.18058942258358002,-0.22603626549243927,1.0844824314117432,-1.6698799133300781,0.685017466545105,-0.40113767981529236
