QuaternionX,QuaternionY,QuaternionZ,QuaternionW,AttitudePitch,AttitudeRoll,AttitudeYaw,GravitationalAccelerationX,GravitationalAccelerationY,GravitationalAccelerationZ,AccelerationX,AccelerationY,AccelerationZ,RotationX,RotationY,RotationZ
-0.1338675503588181,-0.06632924528119215,4.900808162810708e-17,0.9887769468463935,-0.2679242286395089,-0.13644558812737032,-0.01841673429754791,-0.1311696469783783,0.2647302746772766,-0.9553598165512085,-0.12020578235387802,0.08225228637456894,-0.035421084612607956,-0.061745643615722656,1.2017905712127686,-3.2645132541656494
-0.12966885143556606,-0.051859240413794874,-0.06683004677783515,0.9879424794246948,-0.25193591054914477,-0.12402229096237523,-0.1508114088898545,-0.1197994202375412,0.2492792010307312,-0.960993230342865,-0.11277750134468079,0.09240026772022247,0.12189389765262604,0.05821871757507324,0.9189505577087402,-3.1378419399261475
-0.1235271356968788,-0.043285043727324946,-0.12967945282287907,0.982878860621211,-0.2337200847611939,-0.12069203605553826,-0.27654706650088223,-0.1171257495880127,0.23159804940223694,-0.9657348990440369,-0.06500733643770218,0.08153638988733292,-0.0884673148393631,0.11260735988616943,1.0044397115707397,-3.0380661487579346
-0.1142078220900411,-0.02695215544879153,-0.1896437120539953,0.9748155809999738,-0.21407180843243598,-0.09826171617746207,-0.39485257298963405,-0.09586432576179504,0.21244050562381744,-0.9724603295326233,-0.038280196487903595,0.09806801378726959,0.067233607172966,0.24020177125930786,1.2879209518432617,-2.757061243057251
-0.10325269652246523,-0.014995440533775991,-0.24126836055683037,0.9648334111412384,-0.19320725078152406,-0.08033904028159605,-0.49786378412598603,-0.07875939458608627,0.19200745224952698,-0.9782280325889587,-0.01660848781466484,0.09435635805130005,0.10369586944580078,0.32459181547164917,0.7313709259033203,-2.304258108139038
-0.09232008003505633,-0.008613023695120865,-0.28132099814780165,0.9551236505276944,-0.17236028325225908,-0.06948073849237002,-0.578883142241852,-0.06839612871408463,0.17150813341140747,-0.9828056693077087,0.0146403256803751,0.06477415561676025,0.057813405990600586,0.4236186146736145,0.5772829651832581,-1.7532751560211182
-0.07963664924712226,-0.0034163220038809106,-0.3106490460431542,0.9471765645038941,-0.14929132872023088,-0.0566093942058361,-0.6380729918371926,-0.05594978854060173,0.148737370967865,-0.9872926473617554,0.03229289501905441,0.022132404148578644,0.08132413029670715,0.5376566052436829,0.5186707377433777,-1.2407804727554321
-0.06590580763398214,-4.029151301360778e-05,-0.3312419122640404,0.9412413211482977,-0.12436014616248318,-0.04409206705427675,-0.6795146618220282,-0.043737348169088364,0.12403984367847443,-0.9913128614425659,0.03660021722316742,-0.010197469964623451,0.0699542909860611,0.5827530026435852,0.42460736632347107,-0.8963404893875122
-0.05305766847977195,0.001290390832905928,-0.34547512663699614,0.9369259373959912,-0.10048281449506138,-0.03442260431014186,-0.7082604322271265,-0.0342421755194664,0.10031380504369736,-0.994366466999054,0.05483599379658699,-0.018931537866592407,0.050196968019008636,0.5288349390029907,0.24809861183166504,-0.5705447196960449
-0.04213596562391307,0.001060824449832073,-0.3543332951750971,0.9341688343930038,-0.07955988878303842,-0.02797048500074888,-0.7261894715336414,-0.02787834033370018,0.07947597652673721,-0.9964468479156494,0.06787370890378952,-0.06011565029621124,0.04910992830991745,0.48209086060523987,0.13102011382579803,-0.39424437284469604
-0.033518116667425574,-0.001186259873860616,-0.36103173240930764,0.9319502222632503,-0.06165693582227407,-0.026466653276496426,-0.7400001224801471,-0.026413245126605034,0.06161787360906601,-0.9977502822875977,0.08220243453979492,-0.05514167621731758,0.013218468986451626,0.4189888834953308,-0.04536578059196472,-0.3148512840270996
-0.02503135115431432,-0.003275426766460748,-0.3657457771752842,0.9303723601421432,-0.04419539339570148,-0.02443123908722465,-0.7496584992151248,-0.024404922500252724,0.04418100416660309,-0.998725414276123,0.07888692617416382,-0.06891131401062012,-0.03125171363353729,0.3957894444465637,-0.12153390049934387,-0.22700273990631104
-0.014745491138024164,-0.00541206379499591,-0.3696712784946578,0.9290298593359847,-0.02339876911939371,-0.020965181216508144,-0.7576539195818265,-0.02095787413418293,0.023396629840135574,-0.9995065331459045,0.048268064856529236,-0.08141560107469559,-0.007211755961179733,0.4723226726055145,-0.34166979789733887,-0.22982573509216309
-0.005892633306829789,-0.010588421784319329,-0.37462479220222095,0.9270972811270735,-0.002992722480809814,-0.024050473344022803,-0.768079436580733,-0.024048015475273132,0.0029927140567451715,-0.9997063279151917,-0.0028954343870282173,-0.017467204481363297,-0.13797307014465332,0.34402143955230713,-0.521022617816925,-0.29888731241226196
-0.004064375684222153,-0.019968154577394887,-0.3798851683787382,0.9248092279629867,0.007653741975855695,-0.040033324060011775,-0.7793617014796789,-0.04002142697572708,-0.007653671316802502,-0.9991695284843445,-0.10038444399833679,-0.020580898970365524,-0.4733794033527374,0.20662011206150055,0.12592725455760956,-0.3047913908958435
0.0021551055804901412,-0.018560129758930476,-0.38624521109715737,0.9222068640213842,0.018313452443029756,-0.032578984658032065,-0.7929627088385147,-0.03256772831082344,-0.01831243187189102,-0.9993017315864563,-0.1206391304731369,0.14428937435150146,0.02513568289577961,0.13377295434474945,0.1689203530550003,-0.3298287093639374
0.0013606851517193796,-0.0214204092932654,-0.39106794561139663,0.9201115236404185,0.01925882559114096,-0.038370618924575155,-0.8034096107516845,-0.0383540578186512,-0.019257638603448868,-0.999078631401062,-0.17667317390441895,0.13242650032043457,0.12361417710781097,-0.11590038239955902,-0.5417180061340332,-0.1935105174779892
-0.0030339478944270814,-0.02650109432244676,-0.3946681245083901,0.9184364917860148,0.015345899777362011,-0.051102202483244825,-0.8113268592182438,-0.051073916256427765,-0.015345300547778606,-0.9985769987106323,-0.211250901222229,0.09714197367429733,0.03503815084695816,-0.017666151747107506,-0.2691665589809418,-0.24533843994140625
-0.005226003164751712,-0.030441092994708745,-0.40008489185211227,0.9159574947785745,0.01478498791463735,-0.05998971208597838,-0.8231921071153788,-0.05994715169072151,-0.014784452505409718,-0.9980920553207397,-0.17548805475234985,0.0933055430650711,0.02678302302956581,-0.04487490653991699,-0.1795787662267685,-0.3179718554019928
-0.014318798796977575,-0.035772016619513416,-0.4046300779541677,0.9136683548042173,0.002783604662219928,-0.07703161061059755,-0.8336989988963378,-0.07695512473583221,-0.00278360303491354,-0.9970306754112244,-0.1371297836303711,0.07886689901351929,0.10216563194990158,-0.06361088156700134,0.00037307292222976685,-0.22260692715644836
-0.02098370747190174,-0.03992910616405989,-0.4085457238890788,0.9116225813830996,-0.005632741766650846,-0.0900693160626166,-0.8428864035115914,-0.08994612842798233,0.0056327106431126595,-0.9959307312965393,-0.11795635521411896,0.05264582484960556,0.1438109427690506,-0.11533191800117493,-0.060383133590221405,-0.20448479056358337
-0.02663714342819188,-0.041377158463096975,-0.41153858191942777,0.9100629214401137,-0.01442685934740907,-0.09740010900450193,-0.8500819693831988,-0.0972360298037529,0.014426358044147491,-0.9951567649841309,-0.0946536585688591,0.024755310267210007,0.15259672701358795,-0.17929604649543762,-0.016959402710199356,-0.13578703999519348
-0.029892421131114212,-0.04028195041466856,-0.41402351265889414,0.9088829746776352,-0.02098361591728879,-0.09815459509415574,-0.8559170185071181,-0.09797545522451401,0.020982075482606888,-0.9949676394462585,-0.09902364015579224,0.0020811911672353745,0.14420247077941895,-0.17039646208286285,0.02098870649933815,-0.12272374331951141
-0.031642094100517555,-0.038296174893165454,-0.41632219899144374,0.9078590774614421,-0.02556881513450589,-0.09606069060370453,-0.8611544273760258,-0.0958816409111023,0.02556602843105793,-0.995064377784729,-0.12667331099510193,-0.003112202510237694,0.21375183761119843,-0.07515969127416611,-0.010905854403972626,-0.10751019418239594
-0.03408658115678749,-0.039402554451384075,-0.4182399662201954,0.9068411517907919,-0.02886679185736654,-0.10018563856352214,-0.8657135391468541,-0.09997642785310745,0.028862783685326576,-0.9945710897445679,-0.13769692182540894,0.01841002330183983,0.11625257134437561,-0.11740945279598236,-0.11168116331100464,-0.10369444638490677
-0.03693222150448042,-0.039111016537039404,-0.4196420475338161,0.9060942552656801,-0.034109507138472016,-0.10210979961366616,-0.8691858826953752,-0.10187312960624695,0.034102894365787506,-0.9942126870155334,-0.16068939864635468,0.03509172424674034,0.08929751068353653,-0.15828226506710052,-0.089670829474926,-0.05393500253558159
-0.041310874659982996,-0.03957676727237744,-0.4201546138419837,0.905647412649378,-0.04158143221362932,-0.10669346096407151,-0.8709714324605043,-0.10639907419681549,0.04156945273280144,-0.9934541583061218,-0.18648359179496765,0.03006056696176529,-0.04876025766134262,-0.19120734930038452,-0.08201923221349716,0.017520351335406303
-0.04619980166475948,-0.043173879183903065,-0.41979141540463394,0.9054152430124299,-0.04742974243755007,-0.11737011730487397,-0.8710734234847751,-0.11696910858154297,0.0474119633436203,-0.9920032024383545,-0.1987307071685791,-0.010396793484687805,-0.06568652391433716,0.01963597908616066,-0.015599505975842476,0.012373227626085281
-0.048133360385295657,-0.05036798565245388,-0.42002688710195973,0.9048334860937772,-0.04480852905742857,-0.1320999635866408,-0.87216957623114,-0.13158386945724487,0.04479353502392769,-0.990292489528656,-0.17211024463176727,-0.012215182185173035,-0.14336752891540527,0.19534415006637573,-0.03255673125386238,-0.0785122811794281
-0.044893307099693275,-0.05387521061213498,-0.4216041861223,0.9040641757107307,-0.03575244891208484,-0.13577094994443134,-0.8751541418249169,-0.13526767492294312,0.03574483469128609,-0.9901641011238098,-0.14612016081809998,0.0022923387587070465,-0.2207382321357727,0.22586965560913086,-0.2953362464904785,-0.11942934989929199
-0.03922743459732971,-0.054086944702087573,-0.4240287212829179,0.9031807761892929,-0.024992695458213848,-0.1313862893712663,-0.8795203077200948,-0.1309676617383957,0.02499009482562542,-0.9910716414451599,-0.031086891889572144,-0.04291870445013046,-0.17156726121902466,0.4289098381996155,0.5433048009872437,-0.20071999728679657
-0.026746005771942964,-0.049685627740045306,-0.4291149108022767,0.9014857109983384,-0.0055806255942693625,-0.11277664665702239,-0.8888569081812379,-0.11253595352172852,0.005580596625804901,-0.9936319589614868,0.10289953649044037,-0.0003273673355579376,0.21395914256572723,0.47547805309295654,0.31517115235328674,-0.34766262769699097
-0.020298107164939735,-0.05520837974858635,-0.4355489688571556,0.8982411616732896,0.011626976991132168,-0.1171381153452857,-0.9022931568495386,-0.11686249077320099,-0.01162671484053135,-0.9930800199508667,0.12270689010620117,-0.025211704894900322,-0.1699446439743042,0.23481611907482147,0.24711422622203827,-0.40300604701042175
-0.0120550009852247,-0.0493846093744275,-0.4426746371562342,0.8952402368304438,0.02214019296353198,-0.09928238158753587,-0.9173370392888,-0.09909503161907196,-0.022138383239507675,-0.9948316812515259,0.08666904270648956,0.06894844770431519,-0.021634479984641075,0.029949218034744263,0.4246716797351837,-0.37537238001823425
-0.01015218351734507,-0.04212306350453766,-0.44836574913730054,0.8927993443364756,0.01964661614621832,-0.08443523712238218,-0.9299855449564532,-0.08431863784790039,-0.01964535191655159,-0.9962451457977295,0.07248063385486603,0.025572659447789192,0.08030789345502853,-0.21084563434123993,0.08704768866300583,-0.25056254863739014
-0.014512531492367108,-0.03777058148275064,-0.45289897974408844,0.8906432309508555,0.008361637196873122,-0.08051542363061506,-0.9405244938191132,-0.08042561262845993,-0.008361538872122765,-0.9967255592346191,0.03485189378261566,0.0064081596210598946,0.05327669158577919,-0.27869224548339844,-0.10130246728658676,-0.23976768553256989
-0.020465908917301663,-0.03372605185634339,-0.45720038486374326,0.8884883669182677,-0.00552834436559853,-0.07872695299398724,-0.9507083357670674,-0.07864442467689514,0.005528318230062723,-0.9968873858451843,0.014606913551688194,0.0022847140207886696,0.12460189312696457,-0.335524320602417,-0.11172995716333389,-0.18769565224647522
-0.02704811062699953,-0.03279245346983807,-0.4600424758476896,0.8868787464303335,-0.017805886802242703,-0.08316140898647659,-0.9577644919973481,-0.0830523893237114,0.0178049486130476,-0.9963861107826233,-0.0007271133363246918,-0.045992933213710785,0.1993679404258728,-0.2664695680141449,-0.1269260048866272,-0.14533406496047974
-0.0316790810302087,-0.03452893754192041,-0.46342233437237507,0.8848977411116319,-0.024064855471739085,-0.0906209291401625,-0.9659484149420552,-0.09047071635723114,0.024062536656856537,-0.995608389377594,-0.01585189253091812,-0.07200323045253754,0.2217167168855667,-0.07553888112306595,-0.24446523189544678,-0.24875791370868683
-0.033521443847332154,-0.03890062157055419,-0.46827558194597746,0.8820889978041763,-0.02270732255921542,-0.10021562313308338,-0.977215639410698,-0.10002213716506958,0.022705374285578728,-0.9947261214256287,0.012437481433153152,-0.06096659228205681,0.18410813808441162,0.06419676542282104,-0.1899046152830124,-0.290738582611084
-0.03349758154509564,-0.04461294638029216,-0.47322723341773276,0.8791720803849102,-0.016676927549599964,-0.11038822236108134,-0.9884988078957799,-0.11014881730079651,0.0166761577129364,-0.9937751889228821,0.04510781541466713,-0.050578147172927856,0.06042100861668587,0.1596297025680542,-0.2631744146347046,-0.32337552309036255
-0.03248856652668776,-0.049953388836951,-0.4787247780935405,0.8759405192846286,-0.009088378810509558,-0.11890343598158201,-1.0008861439749366,-0.11861852556467056,0.00908825732767582,-0.9928982853889465,0.04661242663860321,-0.034159932285547256,-0.14262881875038147,0.12970080971717834,-0.06666471809148788,-0.31053537130355835
-0.02964278522615859,-0.05220843860342299,-0.48349877059986973,0.873283770048414,-0.0012876950705498905,-0.12013895711842895,-1.0113689850191991,-0.1198500320315361,0.001287698745727539,-0.9927911758422852,0.0331348218023777,-0.03702693060040474,-0.18512792885303497,0.18431517481803894,-0.07540619373321533,-0.28059038519859314
-0.02767172108879009,-0.05700698451945168,-0.48779484413312146,0.8706553396175046,0.00743043118538915,-0.12660454930802992,-1.020904101139724,-0.1262630820274353,-0.007430358789861202,-0.9919689893722534,-0.01913117617368698,-0.02157667465507984,-0.2928125858306885,0.21160361170768738,-0.5095493793487549,-0.28639110922813416
-0.024677941411806653,-0.06001393053003097,-0.4926108923359793,0.8678271379963595,0.016295378375682106,-0.12884997905807857,-1.0315153249397835,-0.12847664952278137,-0.016294652596116066,-0.9915786385536194,-0.0679045021533966,-0.029959559440612793,-0.49790218472480774,0.3914524018764496,1.0105172395706177,-0.38188162446022034
-0.012210272244343259,-0.05398076303156629,-0.4999426053449666,0.8642883538734298,0.032874095306374876,-0.1057729227404225,-1.0470973143602003,-0.10551872849464417,-0.032868169248104095,-0.9938739538192749,-0.11799993366003036,0.18345004320144653,0.21984583139419556,0.13349519670009613,0.23293544352054596,-0.4037573039531708
-0.020497419975475484,-0.061311498681146236,-0.5015241131642798,0.8627249340457874,0.026134094202510196,-0.12673194592187315,-1.0514919899540247,-0.1263497918844223,-0.02613111585378647,-0.9916415214538574,-0.17512163519859314,0.06657779216766357,-0.010732557624578476,-0.18561097979545593,-0.9651214480400085,-0.1869124472141266
0.020817171071891672,0.073891969465263,0.5119235691008786,-0.8555939058797516,0.04004269205848212,-0.14841948144193315,-1.0753971634664254,-0.14775660634040833,-0.04003198817372322,-0.9882132411003113,-0.20358650386333466,0.0859585702419281,-0.030995536595582962,0.016663286834955215,-0.21370869874954224,-0.4380042850971222
0.022617538483509364,0.07464037903156735,0.5192804054687252,-0.8510377061744713,0.03903172632766728,-0.1512237032077447,-1.0927752548294536,-0.15053321421146393,-0.0390218123793602,-0.9878345131874084,-0.16359661519527435,0.1051350086927414,0.012497451156377792,-0.10556681454181671,0.045933883637189865,-0.43062523007392883
0.022164502440680026,0.07257294698483722,0.5262444937464441,-0.8469407701551914,0.038847956540863565,-0.14689603114008631,-1.1090781346826692,-0.14625784754753113,-0.038838181644678116,-0.9884837865829468,-0.09554184973239899,0.07544172555208206,0.1332799345254898,-0.056945256888866425,0.1348591446876526,-0.3389464318752289
0.027748738766056172,0.07124734843736218,0.53097668484776,-0.8439298732608855,0.028829375916210306,-0.15035146291676246,-1.121015481944348,-0.1497233659029007,-0.02882537618279457,-0.9883076548576355,-0.04868669435381889,0.07871890068054199,0.12980125844478607,-0.11599980294704437,0.33010363578796387,-0.2941201329231262
0.028745998227727405,0.06542703176013066,0.534950076957111,-0.8418558962649417,0.021602095211864517,-0.141419412406161,-1.130614914406204,-0.14091558754444122,-0.021600408479571342,-0.9897859692573547,-0.02850203774869442,0.028386401012539864,0.2311634123325348,-0.15029501914978027,0.3886564373970032,-0.12517835199832916
0.026781162064394036,0.058920565036932306,0.5367451979224679,-0.8412584698813064,0.01819190524970614,-0.12825667635362364,-1.1346556150338456,-0.1278841346502304,-0.018190894275903702,-0.991622269153595,-0.038434162735939026,-0.0322863794863224,0.2683185040950775,0.04398004338145256,0.25164076685905457,-0.11911164224147797
0.022130539345649715,0.05846697707698254,0.5390498234081719,-0.8399506439679365,0.02585898762046785,-0.12242408332531515,-1.1395417744650944,-0.12207765132188797,-0.025856098160147667,-0.9921836853027344,-0.07654443383216858,-0.022734718397259712,0.24156725406646729,0.26010751724243164,0.0026067495346069336,-0.1742624044418335
0.017890868974607857,0.06180467764720871,0.5421703578722775,-0.8378015038435386,0.03704780888490895,-0.12335694798215817,-1.1464282578459504,-0.12295987457036972,-0.03703932836651802,-0.9917201995849609,-0.14597758650779724,0.04184182733297348,0.12055166065692902,0.22300924360752106,0.004002906382083893,-0.1632649302482605
0.016252895656957724,0.06546318973434924,0.5434304816484509,-0.8367398683748948,0.04396465568852257,-0.12768567989326254,-1.1491821840433336,-0.1272159367799759,-0.043950486928224564,-0.9909008145332336,-0.23034994304180145,0.05255046486854553,0.025006789714097977,0.122478187084198,-0.34193283319473267,-0.04153520613908768
0.0169488415696041,0.07111496222370582,0.542769141741998,-0.8366940958812455,0.04885545550879169,-0.13800332327570972,-1.1475539658239522,-0.1374015212059021,-0.04883601516485214,-0.9893108010292053,-0.21352848410606384,0.02193492278456688,-0.16792415082454681,0.2614651620388031,-0.05962477624416351,0.004715662449598312
0.010459625700650803,0.07529359033517859,0.5426276510314062,-0.8365265950717425,0.06425746893520706,-0.13804354534554658,-1.1464321931274357,-0.13732151687145233,-0.06421325355768204,-0.9884429574012756,-0.22585460543632507,0.03669879585504532,-0.13992340862751007,0.468501478433609,0.09305304288864136,0.002137616276741028
3.232797968513376e-05,0.07994273384812167,0.5412816637639111,-0.8370324432196582,0.08659714520041684,-0.1347754720249149,-1.1422097875352417,-0.13386429846286774,-0.08648894727230072,-0.9872183203697205,-0.1922149807214737,0.025403663516044617,-0.06125931814312935,0.6839525103569031,-0.12431719154119492,0.04994926229119301
-0.01050696766359201,0.09352287717059006,0.5389961057189689,-0.8370341534879261,0.1186847522016152,-0.14679282245989625,-1.1354634242792288,-0.14523722231388092,-0.11840631067752838,-0.9822861552238464,-0.016369301825761795,-0.12739449739456177,-0.4301426112651825,1.0434197187423706,0.3046386241912842,-0.10272371768951416
-0.029654721842903742,0.09872743273855182,0.5395193333191634,-0.8356388859099436,0.15673290304702325,-0.1350631408625293,-1.1359816279801054,-0.13300234079360962,-0.15609198808670044,-0.9787470102310181,0.15671628713607788,0.136577308177948,0.09073902666568756,0.4756455421447754,-0.019016176462173462,0.036648958921432495
-0.030647540258241658,0.10279879837743099,0.5368453528199049,-0.8368334689221321,0.16238054224870685,-0.14147122300636517,-1.129250989743592,-0.13914494216442108,-0.16166788339614868,-0.976986289024353,0.14221473038196564,-0.06415930390357971,-0.26326313614845276,0.000948779284954071,0.219901904463768,0.09876924753189087
-0.03170973112432213,0.09602245245157223,0.5358083770014459,-0.8382622617862258,0.1567019394309793,-0.12893569678221947,-1.127339018273968,-0.1270032823085785,-0.15606141090393066,-0.9795483946800232,0.08728208392858505,-0.03367525339126587,-0.12239283323287964,-0.3339313566684723,0.28441306948661804,0.03204847127199173
-0.027237092581664495,0.08707911974536782,0.5366129062638494,-0.8388814144628356,0.13960598164510088,-0.11829040880677473,-1.1298876172769436,-0.11686652898788452,-0.13915294408798218,-0.9833507537841797,0.06228950619697571,-0.042456112802028656,0.09827181696891785,-0.498504638671875,0.1324312537908554,-0.03866640105843544
-0.019429503709238904,0.08197682794269544,0.5395178140323744,-0.8377487188157765,0.12130729834016715,-0.11751877878336262,-1.137159534070474,-0.11638680845499039,-0.12100999802350998,-0.9858046174049377,0.029615916311740875,-0.030251342803239822,0.2072860598564148,-0.4449639320373535,-0.14215342700481415,-0.1985095590353012
-0.010484133691406373,0.08131986144900284,0.5436930090380979,-0.8352695289656488,0.10613940982924111,-0.12548103138624098,-1.1473681988857751,-0.12444767355918884,-0.10594023019075394,-0.9865543246269226,0.012803800404071808,-0.010291075333952904,0.22938008606433868,-0.3474206328392029,-0.24231460690498352,-0.2011888474225998
-0.0037244172853905765,0.08232623103227582,0.5475332321811043,-0.8327159691225421,0.09650518466279565,-0.13405327027292951,-1.156813718442226,-0.1330302208662033,-0.09635545313358307,-0.9864170551300049,0.005602065473794937,-0.03032410703599453,0.2483866810798645,-0.1598653495311737,-0.24830344319343567,-0.21812157332897186
-0.0012078272173059283,0.08627537091805436,0.5516158922956251,-0.8296234575925149,0.09733945693995369,-0.14298083478353102,-1.1665796826090118,-0.14181959629058838,-0.09718580543994904,-0.9851102232933044,0.018665969371795654,-0.059932369738817215,0.22840146720409393,0.1322477012872696,-0.21649250388145447,-0.25343871116638184
-0.003654748975400201,0.0923046697975702,0.5551963996686334,-0.8265733318897903,0.10875050949992712,-0.14997927104771597,-1.1747582605021822,-0.14853492379188538,-0.10853627324104309,-0.982932984828949,0.018692340701818466,-0.054629284888505936,0.25678080320358276,0.3510364592075348,-0.2478644847869873,-0.2360180765390396
-0.005415163443241437,0.10285206318221778,0.5582505618855409,-0.8232547542463032,0.1240686158124515,-0.1653178166234375,-1.1814631114356802,-0.16330084204673767,-0.12375055998563766,-0.9787842631340027,0.0524560920894146,-0.066022589802742,0.10728850960731506,0.3220330476760864,-0.5054945945739746,-0.2262255847454071
-0.006055124421466766,0.11174144457658321,0.5616209246830195,-0.8197921598121236,0.13585810012955007,-0.1790031967272611,-1.1890699359811365,-0.17640812695026398,-0.13544054329395294,-0.97495436668396,0.0614330917596817,-0.06788784265518188,-0.13899478316307068,0.19960366189479828,-0.10801218450069427,-0.193659245967865
-0.008506052728202117,0.11737612054386878,0.5635328389908991,-0.8176682453767353,0.14672676266402582,-0.18540372575061145,-1.193209656621435,-0.18236254155635834,-0.14620085060596466,-0.9723010063171387,0.0029917433857917786,-0.1328144073486328,-0.222446471452713,0.28890085220336914,-0.19898584485054016,-0.13097310066223145
-0.011228832272138015,0.12512842670644428,0.5646965510324582,-0.8156804513620413,0.1603233922665569,-0.19517165655383178,-1.195352020647161,-0.19144783914089203,-0.159637451171875,-0.9684335589408875,0.00708962744101882,-0.06542950868606567,-0.21891197562217712,0.2646573483943939,-0.2913033366203308,-0.10529860854148865
-0.007621606166248539,0.13453862415522602,0.5645570140331055,-0.814319778890612,0.16507092991422403,-0.21506426267437875,-1.1945530344785171,-0.21050924062728882,-0.16432228684425354,-0.9636825323104858,-0.11697579175233841,-0.13346236944198608,-0.604162871837616,0.04276759922504425,-0.26367413997650146,0.031017951667308807
-0.014485117721526504,0.1307467578346466,0.5647654283830614,-0.8146995800047143,0.17213332594405042,-0.20097769717444008,-1.1949226691286268,-0.19667723774909973,-0.1712845265865326,-0.9653909206390381,-0.10798518359661102,0.15650372207164764,0.10893625020980835,0.052247509360313416,0.35767897963523865,-0.02629176899790764
-0.0063983377461735505,0.13297213480074954,0.5631505242240825,-0.8155605061256621,0.16089642528447323,-0.21406200114050158,-1.1913292699079367,-0.20968715846538544,-0.16020311415195465,-0.9645549654960632,-0.14493700861930847,0.05129189416766167,0.055742740631103516,-0.5057685971260071,-0.8863078355789185,0.2531248927116394
0.005604468409307423,0.13438816816272317,0.5613613590660578,-0.8165670651301149,0.1422066172120793,-0.2300933010021527,-1.1880668955810194,-0.2257661372423172,-0.14172779023647308,-0.9638168215751648,-0.15626280009746552,0.07074832916259766,-0.03817777708172798,-0.26269614696502686,-0.12086699903011322,0.08446042239665985
0.011655576959664363,0.13006603840883285,0.5623602968275927,-0.8165157484299822,0.12760000466912688,-0.229365412820027,-1.1915288970506053,-0.22551117837429047,-0.12725402414798737,-0.9658939242362976,-0.11241822689771652,0.05580586940050125,-0.0788097083568573,-0.44242772459983826,0.1843738555908203,-0.0513819083571434
0.01575818927471513,0.12092634387152504,0.5635200337009776,-0.8170518810001136,0.11076467130175313,-0.21842696760144364,-1.1954008435927221,-0.21536627411842346,-0.1105383113026619,-0.9702569842338562,-0.029409121721982956,0.04100729525089264,0.10006697475910187,-0.37937235832214355,0.31203097105026245,0.02336779236793518
0.021065673547947826,0.11339788291456179,0.5646303001018607,-0.8172452897447096,0.09376143534399824,-0.2116353734379842,-1.199211509121869,-0.20913638174533844,-0.09362410753965378,-0.9733943343162537,0.01489250548183918,0.04697713628411293,0.14642705023288727,-0.4564515948295593,0.3708033561706543,-0.05367676168680191
0.027198447625439208,0.10220079242211995,0.565933882073799,-0.8176393071620217,0.07126103956195996,-0.19974090473693232,-1.2037404424607239,-0.19791178405284882,-0.07120073586702347,-0.9776304960250854,0.011082231998443604,0.0373782180249691,0.26261404156684875,-0.635607123374939,0.3802998661994934,0.053929731249809265
0.03396726673010349,0.09246951309899412,0.5659239131954312,-0.8185509248850303,0.04907323605959194,-0.19121978474034823,-1.2051176257782914,-0.18982776999473572,-0.049053534865379333,-0.9805912375450134,-0.020085308700799942,-0.05884326249361038,0.325955867767334,-0.3841518759727478,-0.02575327455997467,0.04596506431698799
0.03754064157380047,0.09357279229193545,0.5664186862978428,-0.8179270962843872,0.04460653137086808,-0.19706669233726481,-1.2069459928934176,-0.19559885561466217,-0.04459173232316971,-0.9796696901321411,-0.04461422935128212,-0.08367571234703064,0.24879194796085358,0.13833358883857727,-0.2276650369167328,-0.07123644649982452
0.03514734215653437,0.10104458484403313,0.5671627547909056,-0.8166279026290417,0.0572441082096394,-0.20670519980116595,-1.2081355094918076,-0.20490016043186188,-0.057212840765714645,-0.9771093130111694,-0.08904954791069031,-0.02255881018936634,0.15773636102676392,0.42059963941574097,-0.26698577404022217,-0.09674734622240067
0.030784769119205052,0.11140812532070636,0.5669572914163137,-0.815597928418399,0.07618498693178996,-0.2190126745287205,-1.2065375155570799,-0.21663574874401093,-0.07611130177974701,-0.9732810854911804,-0.1835387796163559,0.009596668183803558,0.0012335851788520813,0.49463099241256714,-0.32595860958099365,0.0092373788356781
0.026094417712340747,0.12156585952001502,0.5644935305437129,-0.8160195607317691,0.09480110832614233,-0.2309354770096323,-1.1993515552491052,-0.2278604805469513,-0.09465916454792023,-0.9690816402435303,-0.2052432894706726,-0.02421160787343979,-0.1757413148880005,0.48182758688926697,-0.10580790787935257,0.07927465438842773
0.01971892504599303,0.12674307659390324,0.5616719497742881,-0.8173567607667589,0.11036518211471648,-0.23284184875729955,-1.191221225717874,-0.22933973371982574,-0.11014126241207123,-0.9670947194099426,-0.19722265005111694,0.012720707803964615,-0.1417534053325653,0.3270536959171295,0.028186731040477753,0.1648712158203125
0.020965982778998558,0.1346335962494618,0.5565870883848444,-0.8195395894575598,0.1157641292506285,-0.24819858974323,-1.178728748753033,-0.24401389062404633,-0.11550573259592056,-0.9628684520721436,-0.20233342051506042,-0.08627539128065109,-0.549489438533783,0.12326818704605103,-0.5314287543296814,0.34107595682144165
0.009256735921542969,0.12703977337868627,0.5531619337129298,-0.8232782835231262,0.12563564544179617,-0.2230060954582973,-1.1691506121564696,-0.21941909193992615,-0.1253053843975067,-0.9675503969192505,0.11577926576137543,0.038847409188747406,-0.038417309522628784,0.2880343794822693,1.1462485790252686,0.03629620373249054
0.006313165552743048,0.11829784080889474,0.5502259913414782,-0.8265695097876393,0.12003258022385851,-0.20541942654361625,-1.162243647322802,-0.20251008868217468,-0.11974454671144485,-0.971931517124176,0.13171881437301636,-0.018301475793123245,-0.19557394087314606,-0.4886005222797394,0.22781072556972504,0.2986338138580322
0.009902679657442015,0.10295587263002702,0.5462162777803055,-0.8312339419912349,0.09615757495708976,-0.18385749912465763,-1.1538500820860425,-0.18197882175445557,-0.09600945562124252,-0.9786040782928467,0.13943782448768616,0.036052875220775604,-0.0891975685954094,-0.6193097829818726,0.5845366716384888,0.36879900097846985
0.01623269794211679,0.086472439915266,0.542051296938508,-0.8357268892805696,0.06666215381853587,-0.1632172265417256,-1.1453245579706373,-0.16213257610797882,-0.06661278754472733,-0.9845180511474609,0.11844778805971146,-0.042445868253707886,0.09502531588077545,-0.7317683100700378,0.365860253572464,0.28637054562568665
0.02846565734015753,0.07701340391595499,0.5384602818104743,-0.8386412533759778,0.03519963761156371,-0.16061726087461317,-1.1387170798833819,-0.15982845425605774,-0.03519236296415329,-0.9865173101425171,0.10489332675933838,-0.018836092203855515,0.17759454250335693,-0.7422378063201904,-0.08138149976730347,0.2783479690551758
0.041077704866137,0.07141357958943466,0.5360893234035012,-0.8401314364175846,0.007546844378033899,-0.16478565780898136,-1.135307378124166,-0.16403619945049286,-0.007546764798462391,-0.9864254593849182,0.068733811378479,-0.028775706887245178,0.18452617526054382,-0.6976529955863953,-0.06957335770130157,0.22710463404655457
0.05129644510746705,0.06785287189567063,0.5355677488120292,-0.8401974841758593,-0.013519080349619383,-0.16979521195054534,-1.1361273173872442,-0.16896504163742065,0.013518677093088627,-0.9855293035507202,0.050458990037441254,-0.06322675198316574,0.2020031064748764,-0.5785978436470032,-0.07962925732135773,0.16206738352775574
-0.0645962446529192,-0.05835681190776297,-0.529088348042835,0.8440896108079324,-0.04731587268732298,-0.1678449438263003,-1.123788281166309,-0.16687096655368805,0.04729823023080826,-0.9848436117172241,0.04807450249791145,-0.12316833436489105,0.19758018851280212,-0.273175984621048,-0.09881752729415894,-0.015086919069290161
-0.06734940165133808,-0.05968513406677554,-0.531558178594462,0.8422277868407186,-0.05001568302346751,-0.1732176538804884,-1.1303391118824506,-0.17213718593120575,0.04999484121799469,-0.9838035106658936,0.06463994085788727,-0.10279789566993713,0.1736963838338852,-0.016524573788046837,-0.14191803336143494,-0.20110219717025757
-0.06718769664662733,-0.06336060370856096,-0.5364592202324178,0.8388579619115806,-0.044756048770701044,-0.1795296744455346,-1.141961913298252,-0.17838798463344574,0.04474111646413803,-0.982942521572113,0.087608203291893,-0.03507694602012634,0.12412265688180923,0.010583963245153427,-0.18207377195358276,-0.1846848726272583
0.06651657447834064,0.07034572180611635,0.5423630349658758,-0.834547372202633,-0.03472360397987993,-0.19083650181301584,-1.1559178103151893,-0.18956591188907623,0.034716635942459106,-0.9812540411949158,0.07387106120586395,-0.06204690784215927,-0.14443278312683105,0.01136738620698452,-0.16061337292194366,-0.21806612610816956
0.06536039246096895,0.06901864649248289,0.5453872940798744,-0.8327767928052967,-0.03358376297605112,-0.1874485925526894,-1.1627844775039493,-0.18624767661094666,0.033577460795640945,-0.9819288849830627,0.06701897084712982,-0.05990831181406975,-0.1848154217004776,0.14787907898426056,0.1716603934764862,-0.27322614192962646
0.061812776943814346,0.06801534565406608,0.549193844927491,-0.8306258215932403,-0.027983010748110753,-0.1819582510641662,-1.1709432676600688,-0.1808849722146988,0.027979368343949318,-0.9831061959266663,0.04008655250072479,0.00762392720207572,-0.1475742906332016,0.13970722258090973,-0.15067589282989502,-0.3080861270427704
0.06224443151556845,0.07443947373991935,0.5545914355958426,-0.8264458951503014,-0.020317718494144456,-0.19332244862735065,-1.1840405896324058,-0.19208082556724548,0.02031633071601391,-0.981168806552887,-0.03670687973499298,-0.035495270043611526,-0.7825350761413574,0.25059276819229126,1.1366199254989624,-0.30766019225120544
0.0430895561902169,0.0658817802763023,0.5606333407490821,-0.8243137911166797,0.0028324180874359475,-0.15758139804537447,-1.194295604989186,-0.1569293737411499,-0.0028324045706540346,-0.9876057505607605,-0.10406956821680069,0.1462680548429489,0.3173450231552124,0.45428794622421265,0.21002250909805298,-0.3291369676589966
0.04814188003119697,0.08179346723779975,0.5634344708870644,-0.8206910657714148,0.013151675338281632,-0.18965513868710562,-1.2020148744457881,-0.1885039061307907,-0.013151286169886589,-0.9819843769073486,-0.10571490228176117,0.07958310842514038,-0.11141963303089142,-0.09682019054889679,-0.8850609064102173,-0.186497300863266
0.05434886626055149,0.08922911783183757,0.5659554642018443,-0.8177889536209828,0.01210790450329651,-0.20899252991449893,-1.2094786466856393,-0.2074592262506485,-0.012107598595321178,-0.9781687259674072,-0.1388324499130249,0.13451816141605377,-0.09396416693925858,-0.15764522552490234,-0.30598968267440796,-0.19047465920448303
0.059944713901435936,0.08861713795141639,0.569527036008063,-0.8149801333451807,0.0032322156044540884,-0.21436171481076507,-1.2195237386334188,-0.21272265911102295,-0.003232199465855956,-0.9771072864532471,-0.10166089981794357,0.0561581626534462,-0.007879202254116535,-0.3563872277736664,-0.013534702360630035,-0.17168167233467102
0.06348888572369063,0.08406107653216092,0.5727052041343287,-0.8129646719648065,-0.006944066128410368,-0.210964640192499,-1.228167855543491,-0.20939818024635315,0.006944021675735712,-0.9778057932853699,-0.034955307841300964,0.018297437578439713,0.13419020175933838,-0.13399815559387207,0.23175902664661407,-0.18452364206314087
0.06655791371386036,0.08019652958479317,0.5763317257399928,-0.8105432027241097,-0.015457136012280132,-0.20825107232734608,-1.2378143889353184,-0.2067243605852127,0.015456532128155231,-0.9782771468162537,-0.008786591701209545,0.02163233980536461,0.14711894094944,-0.15728259086608887,0.3583713173866272,-0.20560739934444427
0.06598524378417953,0.0727027847957151,0.5797041853735777,-0.8088901469515252,-0.02245929791944477,-0.19541122127801022,-1.2458493523407954,-0.19412095844745636,0.0224574226886034,-0.9807205200195312,0.000507894903421402,0.00941133126616478,0.2311873584985733,-0.237992525100708,0.44436144828796387,-0.12387902289628983
0.06510123599717932,0.06263064028981695,0.582876568503091,-0.8075234300513306,-0.032135211964703696,-0.1780744905482428,-1.2532940404016804,-0.1770433634519577,0.032129693776369095,-0.9836784601211548,0.012919805943965912,-0.03816159814596176,0.22689253091812134,-0.24899990856647491,0.43306171894073486,-0.20328181982040405
0.06336868938242499,0.05276629628349786,0.5877845084667008,-0.8048040691845589,-0.03997898411025285,-0.1602396797204278,-1.2648158664611102,-0.15942730009555817,0.039968349039554596,-0.9864002466201782,-0.044478677213191986,-0.01294594444334507,0.2158154845237732,-0.27405884861946106,0.4489944577217102,-0.23190966248512268
0.06272207606077515,0.0456535463867427,0.5924335267090548,-0.8018754237766951,-0.04651397038888628,-0.1482362722866433,-1.2760562891034735,-0.14753420650959015,0.04649721458554268,-0.9879633784294128,-0.12810009717941284,-0.03358319401741028,0.1789872646331787,-0.08244398236274719,0.06216191127896309,-0.29085999727249146
0.06305301601649364,0.04922578481303136,0.5965091909156539,-0.7986100610832303,-0.04199462197164448,-0.1545986816857376,-1.286325466801375,-0.153847798705101,0.041982293128967285,-0.9872022867202759,-0.1983611285686493,0.017685506492853165,-0.005741702392697334,0.20505158603191376,-0.32806676626205444,-0.19764117896556854
0.061182150609060584,0.05898289225189129,0.5972530290793503,-0.797537885810332,-0.027138074933017106,-0.1680155838201452,-1.2878417907107267,-0.167164608836174,0.027134757488965988,-0.9855555295944214,-0.2090739905834198,0.011921502649784088,-0.11763302981853485,0.534323513507843,-0.37693262100219727,-0.05574186146259308
0.05772968289229562,0.07438896448801831,0.5965445265167065,-0.7970371016879196,-0.003272744912845228,-0.1885748355166387,-1.2853295777148317,-0.18745815753936768,0.003272752044722438,-0.9822671413421631,-0.17401023209095,0.0759192407131195,-0.08812293410301208,0.6462323665618896,-0.287221759557724,-0.02435348927974701
0.060024364022161866,0.09094538533140979,0.5933922058650912,-0.7975033980757733,0.0121935992430819,-0.21803397946993333,-1.2780456156800168,-0.21629446744918823,-0.012193284928798676,-0.976252019405365,-0.12426362931728363,0.04313378781080246,-0.6286200284957886,0.2214837223291397,-0.5346343517303467,0.20521661639213562
0.04712267843282344,0.08654381727501079,0.5913686481329897,-0.8003579439530367,0.02693183600309927,-0.19558079144127294,-1.2700505876937689,-0.19426578283309937,-0.02692856825888157,-0.9805792570114136,0.09433840215206146,0.09363532066345215,0.13343393802642822,0.38032639026641846,0.5179650187492371,0.025715593248605728
0.04927177669750812,0.0882125043198286,0.5895706077448559,-0.8013721149551761,0.025047562741874724,-0.20089157718269982,-1.2660494594798735,-0.19948044419288635,-0.025044932961463928,-0.9795817136764526,0.135922372341156,0.06950470805168152,-0.3073553144931793,-0.5073835253715515,-0.0021004825830459595,0.17392700910568237
0.05385669696526643,0.07571424261550559,0.5870436346355945,-0.8042055664916519,0.002271419325905045,-0.18608465339058358,-1.26090069808368,-0.1850120723247528,-0.0022714054211974144,-0.9827336072921753,0.11156603693962097,0.059867795556783676,-0.1817328929901123,-0.660576343536377,0.43144869804382324,0.2625555396080017
0.060476130043224795,0.06004890177681687,0.5853607542717246,-0.8062813370056661,-0.027224371942286458,-0.1684915633854325,-1.2582266766611059,-0.1676332950592041,0.02722102217376232,-0.9854735136032104,0.08031151443719864,-0.0480019673705101,-0.003605613484978676,-0.696940004825592,0.3276251256465912,0.11907555907964706
0.06916273216452606,0.0501123115345177,0.5850572908299133,-0.8064821021711329,-0.05294459644247047,-0.16270154894120292,-1.2595155589932814,-0.1617576628923416,0.05291987955570221,-0.9854105710983276,0.06079797446727753,-0.028056131675839424,0.09366690367460251,-0.5596904158592224,0.06650771200656891,0.023107826709747314
0.07692474671693414,0.044135475355068676,0.5859554077788874,-0.8054756219584768,-0.07226204878095316,-0.16238365879036998,-1.263726827870391,-0.16124901175498962,0.07219918817281723,-0.9842692613601685,0.03941011056303978,-0.04359722137451172,0.1487114429473877,-0.4543040990829468,-0.017703428864479065,-0.028328586369752884
0.08153558251127649,0.0406948476892798,0.5873213387897775,-0.8042074007183901,-0.08343791340502862,-0.16250654494437078,-1.268359442277888,-0.16122934222221375,0.08334114402532578,-0.9833917617797852,0.04507315531373024,-0.07738082110881805,0.2104329764842987,-0.24454110860824585,-0.017133958637714386,-0.08703447878360748
0.08480683354734019,0.041597448619190194,0.5892428195318414,-0.8024153185655513,-0.0871890343708936,-0.1681270791862197,-1.274153030817705,-0.16670046746730804,0.08707862347364426,-0.982154905796051,0.05217762291431427,-0.10084834694862366,0.24865137040615082,0.009996697306632996,-0.244909405708313,-0.1991540938615799
0.0864815062262365,0.047708350562706045,0.5920542652147934,-0.7998228729984174,-0.08193956954093153,-0.18029683363114335,-1.2818510179531115,-0.1787199229001999,0.08184792101383209,-0.9804897308349609,0.09106311202049255,-0.06939227879047394,0.2093343436717987,0.21526166796684265,-0.2993757426738739,-0.18661299347877502
0.08382137510948318,0.05780665535617057,0.5940999895085145,-0.7979208585453482,-0.06512580785749775,-0.19345888154814994,-1.2863425102818917,-0.1918468028306961,0.06507979333400726,-0.9792647361755371,0.09244810044765472,-0.11115586012601852,0.16589030623435974,0.5927263498306274,-0.4396582543849945,-0.2389138638973236
0.07846489433024414,0.07353159017050266,0.5971576352891951,-0.7948830986984461,-0.036929328990345935,-0.21234576186951484,-1.2925401548025983,-0.21060983836650848,0.036920949816703796,-0.9768727421760559,0.10681496560573578,-0.06993909180164337,-0.03108559548854828,0.6569164991378784,-0.3584394156932831,-0.26335805654525757
0.07352893801811643,0.08755980400711011,0.5987401830587299,-0.7927402009806075,-0.011727812886970349,-0.22888260935626922,-1.2950905915969402,-0.22687378525733948,0.011727557517588139,-0.9738535284996033,0.06806117296218872,-0.06312526762485504,-0.1732601821422577,0.5423663854598999,-0.4347556531429291,-0.18117696046829224
0.07063945346690298,0.09905110851691683,0.5992942185520994,-0.7912303462741128,0.006937410543027529,-0.24382673175451772,-1.295616982510329,-0.24141208827495575,-0.00693734223023057,-0.9703978896141052,0.05730295926332474,-0.0375954695045948,-0.2044675648212433,0.3608908951282501,-0.3306863009929657,-0.06287837773561478
0.07166204648537666,0.11005655373621404,0.5990109128689106,-0.789897467751361,0.018639894709160866,-0.26277843503687465,-1.2951714966107637,-0.25971946120262146,-0.01863880269229412,-0.9655042290687561,-0.043712057173252106,-0.041059404611587524,-0.4487033188343048,0.1720363050699234,-0.6565983295440674,-0.05536720156669617
0.0674051833182572,0.11309345627831056,0.5993498569647778,-0.789586104928903,0.029124818762773078,-0.26250719676261064,-1.2947142734812083,-0.2593925893306732,-0.029120689257979393,-0.9653328061103821,-0.09414786100387573,0.03556838259100914,-0.17555612325668335,0.3899930417537689,0.3850495219230652,-0.07950565963983536
0.06059803018715368,0.11194246957533047,0.5995586364331816,-0.7901432488577773,0.03847939508071212,-0.25242226303749965,-1.2933324833809838,-0.24956530332565308,-0.038469888269901276,-0.9675935506820679,-0.043320946395397186,0.15888389945030212,0.3609357178211212,0.03783412277698517,-0.22792841494083405,0.0826803669333458
0.07417000625049842,0.12085821019684721,0.5957833508805577,-0.7905278739047653,0.026746893198237247,-0.2833379627618028,-1.2878543291414504,-0.279462069272995,-0.02674369141459465,-0.959784209728241,-0.042785778641700745,0.08754906803369522,-0.1015075072646141,-0.43718189001083374,-0.513659656047821,0.25923827290534973
0.08144701648673158,0.12071401025531399,0.5929227944347362,-0.7919830057942547,0.01413934183622441,-0.29194894404750255,-1.2832019382116715,-0.287790447473526,-0.014138858765363693,-0.9575890302658081,-0.05935417860746384,0.041661083698272705,-0.06277403980493546,-0.21157114207744598,-0.09006247669458389,0.1534603089094162
0.08359745724551629,0.11840403783903143,0.591314433385387,-0.793308976385276,0.007390873906537922,-0.29081653603348706,-1.2799895143860895,-0.286726713180542,-0.0073907943442463875,-0.9579839110374451,-0.04807977378368378,0.04704219847917557,0.021229367703199387,-0.06284429877996445,0.06251031905412674,0.13630446791648865
0.08384530555066955,0.11601615063880649,0.5879470590479233,-0.7961334614021153,0.0029186066231246624,-0.28725741463274523,-1.2717827546655065,-0.2833218574523926,-0.0029185903258621693,-0.9590204358100891,-0.04318851977586746,0.06183508783578873,0.08267878741025925,-0.002795248292386532,0.07889363169670105,0.26915109157562256
0.08575811797399208,0.11434220979235518,0.5834916968674989,-0.7994428644742116,-0.0036819792588583303,-0.28681663783284955,-1.2615214234488887,-0.2828983962535858,0.0036819831002503633,-0.959142804145813,-0.008153802715241909,0.046901408582925797,0.12818175554275513,-0.05192357301712036,0.16806647181510925,0.2967570126056671
0.08724698859671542,0.10951043733219686,0.579042879738879,-0.8031841294169659,-0.013328709819397338,-0.2806478275385367,-1.2511587350035311,-0.2769535779953003,0.013328326866030693,-0.9607908725738525,0.005077943205833435,0.025910917669534683,0.20219086110591888,-0.09666856378316879,0.259880006313324,0.2926804721355438
0.08527988226000688,0.10561020372480123,0.5753287547199144,-0.806579680000706,-0.016049555318675086,-0.2718652117394409,-1.24138087503273,-0.26849400997161865,0.01604887843132019,-0.9631476402282715,-0.024839960038661957,-0.03506123274564743,0.239084392786026,0.14201636612415314,0.1490124762058258,0.19340947270393372
0.07967924016156,0.10720485007982032,0.5726377280338532,-0.808853777126731,-0.0061186633370851895,-0.2678780126008027,-1.2329237576897485,-0.26468074321746826,0.006118636578321457,-0.9643166661262512,-0.07609160244464874,-0.024477604776620865,0.22354446351528168,0.4244074523448944,0.000826522707939148,0.0933423563838005
0.07392740295685181,0.11408683261869809,0.5702556427756492,-0.810140411676407,0.010334350751567684,-0.27254370296726266,-1.225256594286387,-0.2691677212715149,-0.010334156453609467,-0.9630378484725952,-0.13432592153549194,0.0390109047293663,0.09032170474529266,0.40866440534591675,-0.14447912573814392,0.08435098826885223
0.07063907070684745,0.11920729191409471,0.5674780722146783,-0.8116454531040181,0.0206287503642472,-0.2772779663142294,-1.2174587176257796,-0.27368032932281494,-0.020627276971936226,-0.9615994691848755,-0.15975512564182281,0.049211520701646805,-0.04930570721626282,0.19489094614982605,-0.023750007152557373,0.12106630206108093
0.0694765901720308,0.12159633905825022,0.565134241140297,-0.8130256552715587,0.02446644998930804,-0.27997517322674254,-1.2114121454437636,-0.2762490510940552,-0.024464000016450882,-0.9607746601104736,-0.14423397183418274,0.02139926701784134,-0.10961819440126419,0.11311250925064087,0.09846007078886032,0.0898372083902359
0.0695274849043673,0.12366939217759723,0.5634625365734818,-0.813868348878191,0.026196696362360744,-0.28353314099143057,-1.2073754150069416,-0.2796534597873688,-0.026193691417574883,-0.9597436189651489,-0.07613687962293625,0.015038728713989258,-0.109937883913517,0.14333799481391907,-0.04111427441239357,0.0693819597363472
0.06999915640658119,0.12992118666501087,0.5616018343334095,-0.8141400831493703,0.03195515359168407,-0.2945608205218021,-1.202967268152682,-0.29017138481140137,-0.03194970637559891,-0.9564412236213684,-0.05314592272043228,-0.09646278619766235,-0.5832778811454773,0.2628594636917114,0.15219949185848236,0.013051975518465042
0.058226363313618426,0.12960629752279312,0.561580962831243,-0.8151311953285514,0.050666283001271045,-0.2807178041679787,-1.1993765784193193,-0.27668988704681396,-0.05064459890127182,-0.9596238136291504,0.09980635344982147,0.038988545536994934,-0.09058304876089096,0.40246427059173584,0.10978371649980545,-0.09024819731712341
0.05245371719855294,0.12701452903246543,0.5618309675410265,-0.8157584938089232,0.05717340376482331,-0.2698659310100282,-1.1984697963175837,-0.2661665976047516,-0.05714225396513939,-0.9622318148612976,0.2183576375246048,0.07579199969768524,0.15012843906879425,0.009176487103104591,0.15383057296276093,0.06345678865909576
0.05610225957035242,0.12604529518116814,0.5609766859879282,-0.8162537973644817,0.04985022322753906,-0.2724047075228321,-1.1974121331774352,-0.2687140107154846,-0.049829572439193726,-0.9619302749633789,0.19415009021759033,-0.022668730467557907,-0.19548793137073517,-0.28702908754348755,0.20189139246940613,0.006494976580142975
0.056337721923424414,0.11764553915644367,0.5638040080339655,-0.8155431440670445,0.04077766730812116,-0.258498673529188,-1.2044571030580227,-0.2554168701171875,-0.040766358375549316,-0.9659711718559265,0.16106483340263367,0.005719587206840515,0.01397085003554821,-0.30748164653778076,0.286765456199646,-0.19780007004737854
0.05841096494139947,0.10807563024653716,0.5694451051699615,-0.812797742416107,0.02813738903155613,-0.24474284847419767,-1.218794779968728,-0.24221090972423553,-0.028133666142821312,-0.9698156714439392,0.1465674787759781,-0.026568910107016563,0.11589156091213226,-0.3983389735221863,-0.09659332036972046,-0.34948235750198364
0.06325936448300425,0.10311663377565765,0.5782706963309521,-0.8068260049515513,0.017180899830344577,-0.24194538092623333,-1.2416342333429775,-0.2395564168691635,-0.01718004420399666,-0.9707304239273071,0.11191215366125107,-0.0485917367041111,0.03629659116268158,-0.4001915156841278,-0.056742727756500244,-0.6181687116622925
0.06634957915480887,0.09790214319591097,0.591675177338246,-0.7974542675587895,0.010031194009397016,-0.23688068844089807,-1.2754710131987352,-0.23465974628925323,-0.010031013749539852,-0.9720258116722107,0.07190117239952087,-0.08257092535495758,0.07699346542358398,-0.38543376326560974,-0.09188219904899597,-0.9399322867393494
0.07068025101831356,0.0968726865844219,0.6100929511361328,-0.783202775396095,0.007488818957385024,-0.24029754566930273,-1.3226694122169835,-0.23798494040966034,-0.007488735485821962,-0.9712399840354919,0.0509161539375782,-0.11697687208652496,0.06815214455127716,-0.29169780015945435,-0.0877581387758255,-1.3107084035873413
0.07227085816069921,0.09680716466746853,0.6337799045356778,-0.7640211873185131,0.012276245790462445,-0.2419034987785874,-1.3834890621431282,-0.23953306674957275,-0.012275922112166882,-0.97081059217453,0.043155837804079056,-0.11110945791006088,0.10019699484109879,-0.19627085328102112,-0.04629315435886383,-1.7002925872802734
0.07400556807235283,0.09853950308370035,0.6619373337558141,-0.7393593227582236,0.02102208684212958,-0.24622045463971748,-1.4578068779671347,-0.2436862736940384,-0.021020520478487015,-0.9696263074874878,0.046950966119766235,-0.06527818739414215,0.03850049898028374,-0.34573855996131897,-0.1977846622467041,-1.9996910095214844
0.07773983026580303,0.09471151403055533,0.6935696525234117,-0.709892498267203,0.02100576384495467,-0.2447970480832081,-1.5449524367147587,-0.2423059493303299,-0.021004199981689453,-0.9699724912643433,0.055301111191511154,-0.008552989922463894,-0.015456999652087688,-0.7009845972061157,0.15989336371421814,-2.202162265777588
0.08239830643138304,0.08386144932119953,0.726793658618176,-0.6767191447617322,0.010379102570699333,-0.23545658307306813,-1.6408944954960876,-0.2332744151353836,-0.010378893464803696,-0.9723555445671082,0.04508808255195618,-0.027196316048502922,0.053397037088871,-0.8777748346328735,0.16824620962142944,-2.3615000247955322
0.08768402577973015,0.0733486610573391,0.7614598870146397,-0.6380520500995142,-0.00018981849781776744,-0.22913607866148014,-1.746721677098607,-0.2271362543106079,0.00018984367488883436,-0.9738629460334778,1.5315599739551544e-05,-0.042505115270614624,-0.007212953642010689,-0.8262450098991394,0.1276305615901947,-2.664665699005127
0.09026851929152134,0.06337954746856628,0.7976743458378208,-0.5929167956388708,-0.005930999049967799,-0.2209649515259621,-1.8638432546005255,-0.21916735172271729,0.005930991843342781,-0.975669264793396,-0.07864254713058472,-0.052111536264419556,-0.10414206236600876,-0.726393461227417,0.3757576644420624,-3.0017364025115967
0.08849813566387389,0.05365693177056372,0.8359286605788507,-0.538991963407281,-0.00569286433691076,-0.2072820568003359,-1.9967879201597694,-0.20579755306243896,0.005692863371223211,-0.9785780310630798,-0.20725539326667786,-0.024280577898025513,-0.1823466420173645,-0.6954601407051086,0.3368002772331238,-3.4831621646881104
0.07997802448621502,0.04307119451185784,0.8749434743528044,-0.4756284275374323,-0.0007099229660291547,-0.1819261956459806,-2.145808720535225,-0.18092426657676697,0.0007099546492099762,-0.9834967851638794,-0.27330929040908813,-0.005970202386379242,-0.03825024142861366,-0.4056209921836853,0.9161653518676758,-3.847491502761841
0.06805326898394878,0.03880865559229711,0.9115641344533415,-0.40362535764997926,0.01581776661999292,-0.1560501719949749,-2.3066832706677545,-0.1553981602191925,-0.015817074105143547,-0.9877252578735352,-0.3427213132381439,0.023348547518253326,0.15295559167861938,-0.19302111864089966,0.2639303207397461,-4.185250282287598
0.06256651134448782,0.04078864215913775,0.942811004494073,-0.32485254973954014,0.03627013173395295,-0.14508088283704645,-2.47532069565415,-0.14447738230228424,-0.036262147128582,-0.9888434410095215,-0.36041903495788574,0.05818694829940796,0.054318398237228394,-0.0721845030784607,0.15201571583747864,-4.284417629241943
0.05605953690690983,0.04276180195986891,0.9676464611340879,-0.242258407552838,0.05562350290704348,-0.12977454012686965,-2.6473455389080573,-0.1292104423046112,-0.0555947944521904,-0.9900575280189514,-0.3558266758918762,0.08662692457437515,0.06099652498960495,-0.16904723644256592,0.17556947469711304,-4.318973541259766
0.04850627611241594,0.04226961401465116,0.9851418663306875,-0.15923563804871582,0.06788741066942489,-0.10950322796474979,-2.8173680823158977,-0.10903280228376389,-0.0678352490067482,-0.9917208552360535,-0.3324543833732605,0.0943145602941513,0.14042434096336365,-0.2168852686882019,0.2503657937049866,-4.183903694152832
0.044770222539659815,0.03912206064618791,0.9952351081560142,-0.07728032390124118,0.07101124705968644,-0.09554626749637554,-2.983206598496632,-0.09516054391860962,-0.07095155864953995,-0.9929301738739014,-0.3231160342693329,0.13733813166618347,0.059454295784235,-0.5088603496551514,-0.05729547142982483,-4.018405437469482
0.041152541208326676,0.030538194514318506,0.9986860118541021,-0.0003757030190384425,0.061003041896476436,-0.08246654436676724,-3.138322698013714,-0.08221990615129471,-0.06096518784761429,-0.9947477579116821,-0.28927886486053467,0.15841758251190186,0.06408661603927612,-0.642752468585968,0.16510328650474548,-3.624190092086792
0.037822804584972766,0.020177426309869163,0.996735985964823,0.06840725536573916,0.045413450685359326,-0.07277733202504202,3.0061985541841763,-0.07263816148042679,-0.04539782181382179,-0.9963245987892151,-0.2610078752040863,0.11257041990756989,0.05653100088238716,-0.6181527972221375,0.030329912900924683,-3.22023868560791
0.03621371288704086,0.013167897466163645,0.9908709813593011,0.1291892524598219,0.03545965057851686,-0.06846039974909836,2.883510706893618,-0.0683639645576477,-0.03545220196247101,-0.9970303177833557,-0.2541750371456146,0.08217097073793411,0.02863432839512825,-0.3354860842227936,-0.051912546157836914,-2.8553099632263184
0.03546463750794176,0.010593825496299869,0.9824918406340275,0.1825917853622812,0.03377421784510208,-0.06590399730109539,2.775207552878162,-0.06581877171993256,-0.033767782151699066,-0.9972600340843201,-0.2213396579027176,0.06938687711954117,0.061068758368492126,-0.1387384831905365,-0.08384436368942261,-2.5458755493164062
0.03590494752753512,0.009884835592528427,0.9724530455424308,0.23010473255741004,0.03575649243486437,-0.06537096032299465,2.678063027073881,-0.06528268754482269,-0.035748861730098724,-0.9972262382507324,-0.16149690747261047,0.056195978075265884,0.028394972905516624,-0.08302804827690125,-0.0462210476398468,-2.309997320175171
0.03466456107127408,0.009963962763092495,0.9613561411656237,0.2729349899946991,0.03808938619762925,-0.061293750608767295,2.589505996293438,-0.061210982501506805,-0.03808016702532768,-0.9973981976509094,-0.12927010655403137,0.05219035968184471,0.02800460159778595,-0.07217681407928467,0.09488752484321594,-2.0901215076446533
0.03261518001776696,0.010117833550292945,0.9496912809161767,0.31132012740669296,0.03953545913433623,-0.055721283180292666,2.509148322357855,-0.05564896762371063,-0.03952515497803688,-0.9976677298545837,-0.1164342537522316,0.033379726111888885,0.07872205972671509,-0.10593563318252563,-0.006382688879966736,-1.9323797225952148
0.03328397571047815,0.007923533151868301,0.9373367049331999,0.3467410629535695,0.03794498416021914,-0.05697356196893312,2.434052192369798,-0.05690179020166397,-0.03793587535619736,-0.9976587891578674,-0.09796985238790512,0.0333358533680439,0.05707179754972458,-0.18331104516983032,-0.17737936973571777,-1.7967183589935303
0.03574392378453306,0.0029238105088317057,0.9246537473880605,0.3791166141902157,0.03251498438201226,-0.06396196478270078,2.3644227109171214,-0.06388460844755173,-0.032509252429008484,-0.9974276423454285,-0.0889950543642044,0.05473338067531586,0.006758008152246475,-0.312959760427475,-0.306436151266098,-1.638063669204712
0.03788608079988999,-0.004876938182400627,0.9124546691720373,0.40739076357559134,0.021970676277437092,-0.07319529180827922,2.3025550164578865,-0.07311233878135681,-0.021968906745314598,-0.9970816969871521,-0.07433997839689255,0.05751459300518036,-0.01145128719508648,-0.38625723123550415,-0.26742488145828247,-1.4053492546081543
0.040060891726352264,-0.013028567767793651,0.9012817003720992,0.4311806784654305,0.01106237115350094,-0.08354990747829681,2.249604020784741,-0.08344766497612,-0.011062146164476871,-0.9964507818222046,-0.05527178570628166,0.03937363624572754,0.028986677527427673,-0.3376322090625763,-0.2875097095966339,-1.1964521408081055
0.04514991862015493,-0.02108809145659617,0.8910266146739122,0.451207665189163,0.003163882525640695,-0.09965513967045361,2.204256129002727,-0.09948980808258057,-0.003163878805935383,-0.9950335621833801,-0.028038382530212402,0.012334802187979221,-0.06666513532400131,-0.2939840257167816,-0.41156041622161865,-1.035197377204895
0.045758634052515595,-0.025772263731199722,0.8820023725004592,0.468309331439123,-0.002604007812748883,-0.10505069688738523,2.1652377487102785,-0.10485726594924927,0.002604002133011818,-0.9944838881492615,-0.011593266390264034,-0.0031263786368072033,0.018002115190029144,-0.1728493571281433,0.022727690637111664,-0.8707467913627625
0.0477820605566282,-0.028351628588367,0.8739727000362347,0.4827885587983766,-0.003419841136511725,-0.11112533557149307,2.132023956640786,-0.11089615523815155,0.0034198306966573,-0.9938260912895203,-0.007476514205336571,-0.04895058646798134,0.05851909518241882,-0.06356553733348846,-0.36355358362197876,-0.794028639793396
0.05316833288992099,-0.031036276684549117,0.866008629900989,0.4962248154148155,-0.00098847471016994,-0.12320190938479138,2.100868695834489,-0.12289045006036758,0.0009884696919471025,-0.9924197793006897,0.010065741837024689,-0.07754447311162949,-0.12252464145421982,0.029027551412582397,-0.07377956807613373,-0.7553802132606506
0.05463822676850728,-0.028950745691803805,0.8585899977689362,0.508920212993019,0.0058993888704476395,-0.12360757763263518,2.0718301686376814,-0.12329094856977463,-0.005899360869079828,-0.9923530220985413,0.004706312902271748,-0.050830185413360596,-0.020682867616415024,0.034554317593574524,0.07547594606876373,-0.6922076940536499
0.0567980157024924,-0.027989291086844996,0.8519774237212872,0.5197355755679613,0.011347654077183786,-0.12621828456023354,2.0467795310588732,-0.1258753538131714,-0.01134741771966219,-0.9919811487197876,-0.002235131338238716,-0.06362874805927277,-0.0006760607939213514,-0.06668522953987122,-0.10908535122871399,-0.5551992058753967
0.05839777806594857,-0.026513567660708455,0.8464334234386032,0.5286181169453065,0.01685710561159902,-0.12725195294242922,2.026152489690724,-0.12689080834388733,-0.01685631461441517,-0.9917734265327454,-0.0075851138681173325,-0.09214859455823898,0.050629228353500366,0.05678372085094452,-0.0467042401432991,-0.5007697939872742
0.06075380039752664,-0.02268295993258727,0.8414554760470523,0.5364206675269662,0.027009070319088693,-0.12696547999942043,2.0082465827489213,-0.12657849490642548,-0.027005795389413834,-0.9915888905525208,0.0119754858314991,-0.08492475748062134,0.07910198718309402,0.12211605906486511,0.0655415803194046,-0.4219326078891754
0.06256491470189493,-0.017790879546368186,0.8370575377984584,0.5432345485558662,0.03820015666146357,-0.1244819287712724,1.992656342626129,-0.12407014518976212,-0.038190875202417374,-0.9915382266044617,0.009695585817098618,-0.0950310230255127,0.08986419439315796,0.14105835556983948,0.06917942315340042,-0.4150353670120239
0.06405187133166028,-0.013738307722193635,0.8325595582944191,0.5500483953180533,0.04760531828599496,-0.12220954915536097,1.976824513890664,-0.12176749855279922,-0.04758735001087189,-0.9914172291755676,0.007356375455856323,-0.10886315256357193,0.08754484355449677,0.14955180883407593,-0.0026889964938163757,-0.4275563061237335
0.06669627227115438,-0.011127044759498751,0.8277860082010365,0.5569543686527021,0.055901046398867865,-0.12331946822764564,1.9605381515656013,-0.12281502783298492,-0.05587194859981537,-0.9908555746078491,0.018913038074970245,-0.10732690989971161,0.04863545671105385,0.15637820959091187,-0.06804613023996353,-0.4295307993888855
0.07004018275766201,-0.008816641533596516,0.8228012333639744,0.563928069604638,0.06453134164777805,-0.125794850933153,1.9439713634591165,-0.1252022385597229,-0.06448657810688019,-0.9900332689285278,0.01960200071334839,-0.09757678210735321,0.010351966135203838,0.10368631780147552,-0.14177142083644867,-0.43176817893981934
0.07373450726998235,-0.007155148160019676,0.8179353001701306,0.5705207457625744,0.07249271282576984,-0.1294850993952713,1.9281845147940309,-0.12878446280956268,-0.07242924720048904,-0.9890240430831909,0.023975849151611328,-0.07526720315217972,-0.03582660108804703,0.016145361587405205,-0.15729019045829773,-0.3463214933872223
0.07805215583549918,-0.005037804107737034,0.8137604395127834,0.5759135872320207,0.08179463820985274,-0.1336775633393488,1.9152956848039082,-0.13283422589302063,-0.08170347660779953,-0.9877649545669556,0.032247379422187805,-0.08883479982614517,-0.09812209010124207,0.0571635439991951,-0.1407850980758667,-0.32000625133514404
0.08177050312214407,-0.0037299839245391133,0.8097816510367974,0.580993502331784,0.08909313421978647,-0.13774648791204303,1.9030338777843363,-0.1367667317390442,-0.08897533267736435,-0.986599326133728,0.016907421872019768,-0.06969735771417618,-0.12194745987653732,0.1064748615026474,-0.2575725317001343,-0.3081083595752716
0.08759522930101825,-0.0036480444188579223,0.8052729157492567,0.5863867474140274,0.09700608971564097,-0.14656523232055665,1.8899360097965408,-0.1453544944524765,-0.09685403853654861,-0.9846275448799133,-0.051478538662195206,-0.1182604432106018,-0.3612137734889984,0.2706446647644043,0.09238064289093018,-0.42587605118751526
0.09133631715672284,0.0030291841803566297,0.799127918759671,0.5941742828003147,0.1136251311008243,-0.14379821308986537,1.8710923102453956,-0.14237910509109497,-0.1133808121085167,-0.9832969903945923,-0.10287018120288849,0.06671325862407684,-0.13539691269397736,0.23421400785446167,0.023866407573223114,-0.5463148355484009
0.08929364453135374,0.005984972294633247,0.7934002829297211,0.6020853546521802,0.11729049248913069,-0.13583196936323386,1.8512760448706822,-0.13448430597782135,-0.11702176183462143,-0.9839816689491272,-0.11964543163776398,0.18594582378864288,0.28803497552871704,-0.19397298991680145,-0.11614812165498734,-0.41759565472602844
0.09321968147274376,-0.008175519686398862,0.7878639029426032,0.6086984654474716,0.10077343768370195,-0.1583017980057003,1.833982906264321,-0.1568417251110077,-0.10060297697782516,-0.9824864864349365,-0.16239550709724426,0.11686810851097107,-0.030727270990610123,-0.667456865310669,-0.6081663370132446,-0.3626505434513092
0.09092422962371932,-0.021166112451267607,0.7818970691763393,0.6163779865477241,0.07907031160147386,-0.16961902500824566,1.813172849067321,-0.1682794690132141,-0.0789879634976387,-0.9825695753097534,-0.17948205769062042,0.09810615330934525,-0.012621099129319191,-0.5973436236381531,-0.1973550021648407,-0.4804120659828186
0.08608594727269195,-0.032179436276538825,0.7752162037315872,0.6249748925186646,0.05774315364342201,-0.17487301893178636,1.7896427689682814,-0.17369315028190613,-0.05771108716726303,-0.9831073880195618,-0.1170198991894722,0.07632726430892944,0.0123261958360672,-0.6021261215209961,-0.05951327085494995,-0.4769294261932373
0.07953215777903921,-0.04081045659925336,0.7689669756064345,0.6330078129071599,0.03793426503466492,-0.17499898422181515,1.7674735931220174,-0.1739819198846817,-0.03792518377304077,-0.9840182662010193,-0.06093321368098259,0.0604902058839798,0.04362929239869118,-0.49338334798812866,0.31803080439567566,-0.4747253954410553
0.06946857843911527,-0.04489439197370283,0.7631424325167593,0.6409151966865405,0.020526745684405986,-0.1643491674187832,1.7461549314835947,-0.16357587277889252,-0.02052532136440277,-0.9863172173500061,-0.028179684653878212,0.03557178005576134,0.11808540672063828,-0.46429556608200073,0.46910202503204346,-0.4346306622028351
0.05783390279617544,-0.04548377876217456,0.7579334572077672,0.6481691504383031,0.006024984367208211,-0.1471641469172671,1.7270499915263515,-0.1466308981180191,-0.006024964619427919,-0.9891729354858398,-0.022173820063471794,-0.0011931941844522953,0.18984021246433258,-0.31579655408859253,0.5487964153289795,-0.41659384965896606
0.04832438564648182,-0.04178600679620967,0.7526542855726525,0.6553092704284925,0.00043400163315641683,-0.12785670731374515,1.7088821866025308,-0.12750865519046783,-0.0004340187879279256,-0.9918373823165894,-0.038668420165777206,-0.02167225256562233,0.2011425495147705,-0.08610817790031433,0.4240788221359253,-0.4324159026145935
0.043281281070392925,-0.03596773360229012,0.7470967278151122,0.662328891867749,0.0035901414098327917,-0.11255376360340363,1.6911409547881855,-0.1123155802488327,-0.003590151434764266,-0.9936661124229431,-0.07751321792602539,-0.019869409501552582,0.1810486763715744,0.13118137419223785,0.2948673367500305,-0.45827460289001465
0.0429043933813011,-0.02908494397052026,0.7410909305566098,0.6694007364022907,0.014331779283367388,-0.10272216646943018,1.6730982921445312,-0.10253111273050308,-0.014331307262182236,-0.9946265816688538,-0.12060602754354477,0.01798916794359684,0.18540620803833008,0.2946200966835022,0.1070621907711029,-0.47347021102905273
0.04848609111728165,-0.02598930977370223,0.7354417797510682,0.6753511324996626,0.027266403063711416,-0.10666292111726615,1.6573876582749896,-0.10642124712467194,-0.027263043448328972,-0.9939473271369934,-0.15112540125846863,0.061287932097911835,0.021284209564328194,0.2379072904586792,-0.2235538363456726,-0.35571926832199097
0.05413145608618229,-0.024933972834692387,0.7316889453576723,0.6790283166338957,0.037034223466077286,-0.11339698170591998,1.6475219889603174,-0.11307655274868011,-0.037025779485702515,-0.9928961396217346,-0.17149518430233002,0.04952928423881531,-0.07143233716487885,0.2226620316505432,-0.12784835696220398,-0.1972997635602951
0.061841054576237335,-0.026203140896728202,0.7295858009391492,0.6805833581418991,0.04595728191711816,-0.12637272458198445,1.6431753691842899,-0.12590359151363373,-0.045941125601530075,-0.9909781813621521,-0.18028399348258972,0.028775561600923538,-0.13451984524726868,0.312796413898468,-0.2189103215932846,-0.10368175804615021
0.0699241458351454,-0.02597781763808017,0.7290414446243455,0.6803927306294942,0.05730530863107764,-0.1379684903208693,1.6437623565958863,-0.13730546832084656,-0.05727396905422211,-0.9888715147972107,-0.15389394760131836,0.07003118097782135,-0.13086162507534027,0.2940294146537781,-0.24943366646766663,0.03807047754526138
0.07957540526524975,-0.030168053962602016,0.7305536365813707,0.6775315503623578,0.0637941940642344,-0.15812627493488404,1.651127652265902,-0.1571478545665741,-0.06375095248222351,-0.985515296459198,-0.07237599790096283,-0.003080073744058609,-0.544321596622467,0.11789929866790771,-0.09687057137489319,0.2466372549533844
0.07558209127561243,-0.019556902638683392,0.7339105701382882,0.6747445356170241,0.07335694523150169,-0.1381421060563123,1.6598277771324084,-0.13733285665512085,-0.07329118996858597,-0.9878097176551819,0.07247813045978546,0.0641217827796936,0.04366687685251236,0.23451873660087585,0.7382744550704956,0.13684424757957458
0.07705813192000253,-0.01875768054403578,0.7367783634136388,0.6714669815141255,0.07591637655482447,-0.13959353659066318,1.6687955425261745,-0.13873988389968872,-0.07584349811077118,-0.987420380115509,0.16510294377803802,0.005311939865350723,0.0559144951403141,-0.09112656116485596,-0.7423524260520935,0.22147102653980255
0.07253319656358713,-0.02392861983356159,0.7395947120949596,0.668704702173855,0.061650664082876054,-0.14001486131176108,1.675710445929502,-0.13929273188114166,-0.061611637473106384,-0.9883326888084412,0.16386626660823822,0.042718805372714996,-0.10753697901964188,-0.38254860043525696,0.4405481219291687,0.2502467632293701
0.05891349314620765,-0.02760773560512269,0.7433883527112498,0.6656881931545782,0.03739821250031996,-0.12475788626728672,1.6833061331205559,-0.12434753030538559,-0.03738951310515404,-0.9915339946746826,0.1268804669380188,0.0040634796023368835,0.05010087788105011,-0.6882375478744507,0.2788151502609253,0.28297072649002075
0.04937133745472593,-0.03796846118196606,0.7466278377289657,0.6623200335207767,0.008702741461451632,-0.12434344208607373,1.6908704915846158,-0.1240186095237732,-0.008702649734914303,-0.9922417402267456,0.09903214871883392,-0.03691490367054939,0.12109504640102386,-0.6261321902275085,-0.1604362279176712,0.24784818291664124
0.04405299175193074,-0.04842430486860413,0.7491023880647388,0.6592116430811805,-0.014469539587481064,-0.13022549100437214,1.6973370885530827,-0.12984415888786316,0.014469017274677753,-0.9914288520812988,0.06703968346118927,-0.005217321217060089,0.11563846468925476,-0.5320068597793579,-0.23723748326301575,0.27541956305503845
0.04035082569670197,-0.05825756737218962,0.7530985402680505,0.6540799044085724,-0.034969176000625865,-0.13750319214389325,1.7088901621145705,-0.13698653876781464,0.03496203199028969,-0.989955723285675,0.05140771344304085,-0.030164726078510284,0.16094262897968292,-0.42812496423721313,-0.263995498418808,0.4190426170825958
0.040165253620924185,-0.06703286194017352,0.758083990154278,0.6474580408971244,-0.04964283360366917,-0.14842576044468553,1.7241946468682343,-0.147699236869812,0.04962243139743805,-0.9877867102622986,0.05007036775350571,-0.09027740359306335,0.18608905375003815,-0.15907156467437744,-0.32793623208999634,0.39579224586486816
0.04409057185141282,-0.07195345543372776,0.7623411350407113,0.6416500617794871,-0.053149741672229994,-0.16047551477946578,1.7380256847463107,-0.15956202149391174,0.05312470719218254,-0.9857574105262756,0.059637270867824554,-0.07686974108219147,0.1762489676475525,0.07122395932674408,-0.30102258920669556,0.32045015692710876
0.05115944089335525,-0.07425103615321288,0.7658353143993077,0.6366834540489448,-0.04860252476130317,-0.17398916092830213,1.7502100647516787,-0.1729082614183426,0.04858337715268135,-0.9837389588356018,0.07862869650125504,-0.027486979961395264,0.1306769698858261,0.21683543920516968,-0.47995680570602417,0.25717198848724365
0.059745594972089075,-0.07650141889030573,0.7689643504288716,0.6318794841121209,-0.04216218680149906,-0.1898703173058307,1.7618772235971822,-0.18856385350227356,0.042149681597948074,-0.9811559915542603,0.09681969881057739,-0.015522981062531471,-0.08073005080223083,0.19467467069625854,-0.21891307830810547,0.25888675451278687
0.06534875533710681,-0.07644393100010484,0.7721303593141248,0.627455647368802,-0.036050276768880084,-0.1982703376526531,1.7732179773498653,-0.1968459039926529,0.036042455583810806,-0.9797717332839966,0.07186321169137955,-0.03671984001994133,-0.18407873809337616,0.1944407969713211,-0.18253836035728455,0.2132430076599121
0.06915766761418435,-0.07452769644155259,0.774533479356904,0.6243081018355285,-0.029101115002186224,-0.20163466386621245,1.781817474188775,-0.20018638670444489,0.029096992686390877,-0.9793256521224976,0.05955834686756134,-0.0134259769693017,-0.19299031794071198,0.21561896800994873,-0.2505904734134674,0.12405097484588623
0.07869842739729124,-0.07787219690644927,0.7749680702977096,0.6222275246248028,-0.022762242533708447,-0.2207307497985914,1.7860479012170154,-0.21888601779937744,0.022760262712836266,-0.9754849672317505,-0.01315975934267044,-0.03313400596380234,-0.8343458771705627,0.13020563125610352,0.49577587842941284,-0.015675071626901627
0.07339853855680409,-0.06534146139809709,0.7755184283079519,0.6236299871336689,-0.009800112451954276,-0.1966153417263492,1.7860984683022445,-0.19534166157245636,0.009799941442906857,-0.9806863069534302,-0.04501378536224365,0.30077093839645386,0.14556628465652466,0.1564967930316925,0.23647312819957733,0.022337567061185837
0.07851253694235437,-0.07332194552061075,0.7778821135341591,0.6191599732450843,-0.016848816524464426,-0.2146170229071361,1.7952371007590884,-0.21294306218624115,0.01684800535440445,-0.9769193530082703,-0.0871991515159607,0.3162039816379547,0.23751993477344513,-0.3900069296360016,-1.3594483137130737,0.5979001522064209
0.0871235178244214,-0.09590498190232603,0.7824869633657664,0.609036756164626,-0.04398012348834959,-0.25620410434288016,1.8131465211262598,-0.2531653940677643,0.043965935707092285,-0.9664234519004822,-0.07426287233829498,0.2143457680940628,-0.08746780455112457,-0.4946994185447693,-0.6072821617126465,0.5318446755409241
0.08727001879976702,-0.10866817337894785,0.7862157020433418,0.6020300132999428,-0.06584247069672228,-0.2719925246183974,1.8255928324684818,-0.26806914806365967,0.06579489260911942,-0.9611503481864929,-0.015431344509124756,0.10681609809398651,-0.051567643880844116,-0.32850804924964905,-0.19678479433059692,0.3799104392528534
0.08467438891124784,-0.11183878240756084,0.7904974237762692,0.5961847074682132,-0.07592631622661142,-0.2713113149377469,1.8388705667951712,-0.26722294092178345,0.0758533775806427,-0.9606446623802185,0.018004857003688812,0.05041735619306564,0.057804692536592484,0.032387156039476395,0.18590834736824036,0.38985687494277954
0.08295869213646448,-0.10645526651902651,0.7951807890314875,0.5911620675186045,-0.07127864331320659,-0.26142275733551373,1.8536509623612532,-0.2577989995479584,0.07121828943490982,-0.963570237159729,0.01946670189499855,0.015001404099166393,0.09238027036190033,0.30417126417160034,0.23294678330421448,0.24968981742858887
0.07964446153725123,-0.09841954372746417,0.7992465761347125,0.587516232432435,-0.06378137439887711,-0.24592366890655107,1.8659303397294404,-0.24295732378959656,0.0637381300330162,-0.9679406881332397,0.047701645642519,-0.012948062270879745,0.13272713124752045,0.35995304584503174,0.4912845194339752,0.2201823890209198
0.0754329556244418,-0.08615286717691151,0.8029084926164118,0.5850004057447691,-0.0501100867577167,-0.22407991448148395,1.8766237437054107,-0.22193048894405365,0.05008910596370697,-0.9737750887870789,0.03976112976670265,-0.06612595170736313,0.19143171608448029,0.4824739098548889,0.5455731153488159,0.10837112367153168
0.0742829377253841,-0.07179153837187284,0.8049569536408862,0.5842707250710868,-0.028779476921800523,-0.20499760940626005,1.8829137885897964,-0.2034805566072464,0.028775492683053017,-0.9786560535430908,0.015845008194446564,-0.07708167284727097,0.2521074414253235,0.6095486879348755,0.33762043714523315,-0.01479446142911911
0.07901544810020936,-0.06031700974232933,0.80539815035453,0.5843392113881121,-0.0048147855048998,-0.19908376005986722,1.8858029863327999,-0.19776901602745056,0.004814755171537399,-0.980236828327179,-0.015565246343612671,-0.05946565046906471,0.25109627842903137,0.5497376918792725,-0.07517573237419128,-0.09130901843309402
0.08976917721736674,-0.05903252544349671,0.8040375251399208,0.5847907509570839,0.010063807671380256,-0.21506377177931038,1.8850275010948354,-0.21339896321296692,-0.010063650086522102,-0.976913332939148,-0.1085675060749054,0.09671393036842346,0.11248116195201874,0.11096516251564026,-0.670126736164093,-0.03315746411681175
0.0987923959875298,-0.07024847141861792,0.8039133118245987,0.5822616408419092,0.0020986841038918174,-0.24303295686558463,1.8881713737591201,-0.2406470626592636,-0.0020986944437026978,-0.9706104397773743,-0.16572706401348114,0.13238850235939026,-0.18407179415225983,-0.39604148268699646,-0.5221008062362671,0.28288915753364563
0.09787420772186697,-0.07981611637736324,0.807320729457565,0.5764401969059407,-0.016037842963263507,-0.25276530721433893,1.8994126816612185,-0.25005021691322327,0.016037143766880035,-0.9681000709533691,-0.20146837830543518,0.09664417803287506,-0.18320642411708832,-0.2923133671283722,-0.027586162090301514,0.43959665298461914
0.0949609809106015,-0.08346846590016346,0.8124247999804448,0.5691936710063072,-0.027524800173704664,-0.25207222297502196,1.9158331970895441,-0.24931679666042328,0.027521314099431038,-0.9680308699607849,-0.1939752846956253,0.10022728145122528,-0.12907399237155914,-0.08136790990829468,-0.2226509302854538,0.5217551589012146
0.09348347148179989,-0.08601931923253961,0.8185127994090552,0.5602662056191214,-0.0360723903605394,-0.2522512929436145,1.9365330911116247,-0.24942231178283691,0.03606455773115158,-0.96772301197052,0.009883671998977661,0.04537906497716904,-0.46809783577919006,0.033196717500686646,1.1000405550003052,0.5359950065612793
0.07657902495936948,-0.0719740406625573,0.8257368135658861,0.5541787734957664,-0.033992835885814775,-0.20785385560751451,1.9558709122334852,-0.20624125003814697,0.03398628160357475,-0.9779107570648193,0.20056822896003723,0.04782548546791077,0.17778512835502625,0.09713389724493027,0.646391749382019,0.41383713483810425
0.06598969235862004,-0.06803681659018215,0.8304794955277858,0.5489262823604867,-0.04057053795954561,-0.18551461949869083,1.9697141207190294,-0.18430060148239136,0.040559399873018265,-0.9820327162742615,0.21915574371814728,0.08257915079593658,-0.21763138473033905,-0.19621920585632324,1.0189682245254517,0.43837934732437134
0.04830925051748686,-0.060947386462122784,0.8366483630135118,0.5421910570316554,-0.049617731657848684,-0.14764282414997063,1.9879142062160817,-0.14692600071430206,0.04959736764431,-0.9879032373428345,0.15562233328819275,0.025902733206748962,-0.10008561611175537,-0.21434032917022705,0.8103724718093872,0.4720657765865326
0.03691694537282331,-0.05912441217685409,0.8408036215451766,0.5368339533916098,-0.05982317656715043,-0.12611887431743565,2.0013497946535117,-0.12555982172489166,0.05978749319911003,-0.9902828931808472,0.11627206206321716,-0.028477409854531288,0.09944047033786774,-0.20377236604690552,0.1920105367898941,0.2775033712387085
0.03418444657628425,-0.06152864470234614,0.8427201231396835,0.533730699694436,-0.06726298518519291,-0.12389142854122236,2.0082668475986685,-0.12329532951116562,0.06721226871013641,-0.9900913238525391,0.08565138280391693,-0.024782761931419373,0.1378941684961319,-0.14572972059249878,-0.07248173654079437,0.11214084178209305
0.03488956858443463,-0.06626682265935292,0.8433087566791019,0.5321858714540731,-0.07470076760906981,-0.13010646614497248,2.010820997175163,-0.12937793135643005,0.07463130354881287,-0.9887828230857849,0.0659991055727005,-0.014667391777038574,0.18044738471508026,-0.20184478163719177,-0.19349154829978943,0.0828528106212616
0.037170725625651935,-0.07156920547162161,0.8436876857866034,0.5307422300578589,-0.08139782225663911,-0.13960431754920946,2.0128510181956463,-0.13869060575962067,0.08130796253681183,-0.986992359161377,0.05132418870925903,-0.06793811917304993,0.19962304830551147,-0.09132169932126999,-0.2648129165172577,0.039823636412620544
0.042909639402639074,-0.07340236613468021,0.8431637812124582,0.5308914136736955,-0.07829969758018357,-0.1513359861755607,2.0117925369105047,-0.1502971202135086,0.0782197117805481,-0.9855417013168335,0.07003579288721085,-0.1243901252746582,0.18353977799415588,0.2298126220703125,-0.285103976726532,-0.1334426999092102
0.05201923937270935,-0.06995397638335125,0.8413263557340543,0.5334513186361141,-0.062248978369563196,-0.16320261457067606,2.0063244320591997,-0.16216443479061127,0.06220877915620804,-0.9848008751869202,0.10021061450242996,-0.10746163874864578,0.14096392691135406,0.48726359009742737,-0.26216280460357666,-0.2519552409648895
0.06209914638193286,-0.06322731670594377,0.8389946317993209,0.5368742844833451,-0.03942610234746343,-0.17308876794803155,1.9996843190507858,-0.17209197580814362,0.0394158810377121,-0.9842919707298279,0.11505170911550522,-0.06847135722637177,0.07438588887453079,0.5555264949798584,-0.2729991376399994,-0.2561769187450409
0.07308334810188999,-0.05777329218614529,0.836529110796084,0.539944591804221,-0.017737094377060662,-0.18575693647896932,1.9935889499089392,-0.18466149270534515,0.017736157402396202,-0.9826421141624451,0.11604936420917511,-0.01895691454410553,-0.13145391643047333,0.420519083738327,-0.27650079131126404,-0.21097201108932495
0.08009791545134629,-0.053192840077480735,0.8353639377589256,0.5412225192742347,-0.0021691712181268015,-0.1925889271790602,1.9916044413353853,-0.1914001852273941,0.0021691611036658287,-0.9815096855163574,0.09042532742023468,-0.047646671533584595,-0.18615391850471497,0.3814675509929657,-0.18423981964588165,-0.06721043586730957
0.08686441663577536,-0.047447854172544615,0.8344267197386122,0.5421579232726378,0.015005511941399001,-0.19772029700830704,1.990700238560632,-0.19641247391700745,-0.015004958026111126,-0.9804065227508545,0.08443756401538849,-0.024337342008948326,-0.189193457365036,0.4255489110946655,-0.24560469388961792,-0.1420808583498001
0.09797551226597125,-0.047401789551575695,0.8321360733401426,0.5437861474326824,0.027669505162923276,-0.21637745737177924,1.986959459095155,-0.21461082994937897,-0.027665983885526657,-0.97630774974823,-0.03845132887363434,0.013570219278335571,-0.6506975293159485,0.13603262603282928,0.1356009542942047,-0.15806874632835388
0.09561729876641363,-0.041868244850067175,0.8309314844795143,0.5464955289320654,0.034936673519453385,-0.20624857508325153,1.9816839993770965,-0.20466449856758118,-0.03492957726120949,-0.9782087802886963,-0.09598366916179657,0.2078777551651001,-0.006428280845284462,-0.09788641333580017,-2.1249055862426758e-05,-0.11167372018098831
0.09432406350502437,-0.050912786683729484,0.830065490438173,0.5472679171566144,0.018720266443213344,-0.21398263627727776,1.9778231879870483,-0.21231620013713837,-0.018719183281064034,-0.9770216941833496,-0.1286688596010208,0.18561090528964996,0.2012718915939331,-0.6591042280197144,-0.7940663695335388,0.0797024667263031
0.09249590500678809,-0.06935031588858649,0.8284517865529557,0.5479987320260026,-0.013531921843668356,-0.23134362361831703,1.9712231492979342,-0.22926460206508636,0.013531500473618507,-0.973270058631897,-0.14012138545513153,0.13975973427295685,-0.034286294132471085,-0.7613775730133057,0.006537944078445435,-0.05891916900873184
0.08359282244630117,-0.08135677379485884,0.826396103442952,0.5508744805304886,-0.04238022168453838,-0.2300241432037629,1.9607850420728883,-0.22779634594917297,0.04236752912402153,-0.9727866053581238,-0.11102473735809326,0.09765876829624176,0.014752984046936035,-0.7178217768669128,0.07893288135528564,-0.07900694012641907
0.07557644848719848,-0.09296862174679227,0.8247110845702325,0.5527175343531958,-0.06985645104882426,-0.23000695060864423,1.9526369602685956,-0.22742828726768494,0.06979963928461075,-0.9712900519371033,-0.014915849082171917,0.04162698984146118,0.07846442610025406,-0.46477872133255005,0.30640918016433716,-0.051045309752225876
0.06735625714701064,-0.09890621495898635,0.8239023713114109,0.553954529830824,-0.08846888127835449,-0.2232858007690436,1.9478080251967176,-0.22056908905506134,0.08835351467132568,-0.9713613986968994,0.0202726349234581,0.042129430919885635,0.14195118844509125,-0.3470918536186218,0.3666207790374756,0.03202265501022339
0.05850574944864531,-0.10182653298979456,0.8246999309726326,0.553243641748015,-0.10340095955018007,-0.2118739713741743,1.9488120866971668,-0.2091691792011261,0.10321679711341858,-0.972416877746582,0.03900749981403351,0.007300980389118195,0.18685194849967957,-0.3049078583717346,0.3102623522281647,0.16933828592300415
0.05071744596532299,-0.10249185715606696,0.8264475724777581,0.5512781022357772,-0.11373450263693144,-0.19943302512117822,1.9536719236468527,-0.19683368504047394,0.11348944902420044,-0.9738463163375854,0.031125202775001526,-0.04556145891547203,0.186051145195961,-0.11415202915668488,0.2781935930252075,0.14188514649868011
0.04727028827078913,-0.09988429024056036,0.8276748691174424,0.5502208600333243,-0.1135692142956384,-0.19053651986235517,1.9573395036599144,-0.18816573917865753,0.11332523077726364,-0.9755772948265076,-0.014424504712224007,-0.019303563982248306,0.18723559379577637,0.16032278537750244,0.11087729781866074,0.04876061528921127
0.04973089187848263,-0.09483933680613038,0.8284923926581759,0.5496660378559728,-0.10265678520153537,-0.18877027859491932,1.960316720210619,-0.18666329979896545,0.102476567029953,-0.9770646691322327,-0.028487056493759155,-0.0015732032479718328,0.12939536571502686,0.40496474504470825,-0.012160666286945343,-0.025054559111595154
0.05635257319363769,-0.08800087117607408,0.8288583603368014,0.549612659059667,-0.08403521375478222,-0.19200025960963724,1.9624426381342654,-0.1901494264602661,0.08393633365631104,-0.9781604409217834,-0.10451529920101166,0.09222878515720367,0.09237989783287048,0.4902639091014862,-0.20740580558776855,-0.004241913557052612
0.06769116888910821,-0.0842889574473933,0.8301897637157909,0.5468988211150378,-0.06595903483405534,-0.206498385465573,1.9697331730420409,-0.2045881301164627,0.06591121107339859,-0.9766265749931335,-0.1315852701663971,0.07867853343486786,-0.07335429638624191,0.4912673532962799,-0.42036885023117065,0.16284626722335815
0.07919854942282743,-0.08204609177568166,0.8324710566811968,0.5422065537404981,-0.05073981739990596,-0.2229601168821601,1.9813036542048208,-0.22083289921283722,0.0507180392742157,-0.9739920496940613,-0.11034516245126724,0.04967451095581055,-0.12081409990787506,0.5961020588874817,-0.26668667793273926,0.19485533237457275
0.08974284027076775,-0.07815762592966426,0.8354038352702975,0.5365986067778125,-0.03428130901710753,-0.23614774864672028,1.9956075956211194,-0.23382161557674408,0.03427458927035332,-0.9716752171516418,-0.08422825485467911,0.052086375653743744,-0.13933467864990234,0.5545249581336975,-0.44334009289741516,0.2705819308757782
0.09940765161688664,-0.07484399103568744,0.8384821084675921,0.5305320613880643,-0.02003414230592203,-0.24872330068655027,2.0108120853047535,-0.24611738324165344,0.020032795146107674,-0.9690330028533936,-0.037534765899181366,-0.01871955767273903,-0.5051050186157227,0.4309961199760437,0.39046725630760193,0.2596559524536133
0.09410846482666221,-0.06154307155404184,0.8418215767582227,0.5279134296691007,-0.004254339046747141,-0.22532783500148845,2.0208832579509792,-0.22342394292354584,0.0042543187737464905,-0.974712073802948,0.16635864973068237,0.04975837096571922,-0.017988141626119614,0.2688233554363251,0.8531654477119446,0.0749506950378418
0.08717254888200958,-0.0554627760268012,0.8441080422426651,0.5261239448021232,-0.0019060211402046638,-0.20700223595823075,2.0266574924772707,-0.20552672445774078,0.001906012650579214,-0.9786496758460999,0.18179325759410858,0.03879927098751068,-0.0800384059548378,-0.19468417763710022,0.26592469215393066,0.20581604540348053
0.07203821015161685,-0.052540980974609054,0.8472320921498271,0.52368674847183,-0.01357831562602854,-0.17805181428124345,2.0331149318243043,-0.17709623277187347,0.013577891513705254,-0.9840998649597168,0.14161518216133118,0.009417388588190079,-0.017248574644327164,-0.27895134687423706,0.7669558525085449,0.21556967496871948
0.05986622322920189,-0.0535457438567486,0.8493194143946566,0.5217330960562355,-0.028490353757172373,-0.15828839798371358,2.037603656495914,-0.15756429731845856,0.028486493974924088,-0.9870977997779846,0.13609395921230316,-0.08173920959234238,0.07143530249595642,-0.35597291588783264,0.22526824474334717,0.09944218397140503
0.05306318845516504,-0.057255131374670754,0.8498298851317673,0.5212440323708394,-0.04200885752081774,-0.15057788400658342,2.0380661484292997,-0.14987719058990479,0.04199649766087532,-0.9878122806549072,0.12494589388370514,-0.04757329076528549,0.10753736644983292,-0.3551463484764099,-0.06385162472724915,0.0317520834505558
0.04959600303754422,-0.0632662875241332,0.849946929230263,0.5206992609220945,-0.05592591812493071,-0.15100173759630753,2.0380582502396076,-0.15019339323043823,0.05589676275849342,-0.9870752096176147,0.09577599167823792,-0.011393439024686813,0.15473896265029907,-0.4547058939933777,-0.18500885367393494,0.10636991262435913
0.049336553600533344,-0.07386929574431714,0.8506071586736277,0.5182438200675067,-0.07459994961689201,-0.16164734698323116,2.0411412187359144,-0.16049669682979584,0.07453077286481857,-0.9842184782028198,0.08618856221437454,-0.05294043943285942,0.11449068784713745,-0.39032411575317383,-0.24090075492858887,0.1658841222524643
0.050400316945164336,-0.07939772210454052,0.8515150692371921,0.5158274156347231,-0.08331734485649263,-0.16913343570002956,2.0452143821963222,-0.16774433851242065,0.08322098106145859,-0.9823116064071655,0.07538540661334991,-0.08606560528278351,0.17573481798171997,-0.006207063794136047,-0.2329365462064743,0.08459803462028503
0.056778722269226166,-0.08088808634601018,0.8515226956753662,0.5149197766213574,-0.07936640429535996,-0.18156278605085488,2.0466207046677476,-0.17999853193759918,0.07928310334682465,-0.9804666042327881,0.09394229203462601,-0.05192752182483673,0.12612299621105194,0.16691875457763672,-0.329664409160614,-0.031233713030815125
0.06353932771780282,-0.0807807122837388,0.8512851724714282,0.5145394651721212,-0.07221060089130642,-0.1930058249225023,2.047263361730796,-0.19130994379520416,0.07214785367250443,-0.9788744449615479,0.12077581882476807,-0.034583937376737595,0.07950735092163086,0.2062802016735077,-0.2364896833896637,-0.009834516793489456
0.07113047147099494,-0.08009686401912208,0.8507601956841327,0.5145212299967092,-0.0631321009179511,-0.20529823723896412,2.047236283646417,-0.20345306396484375,0.06309016793966293,-0.9770498871803284,0.11003427952528,-0.013374673202633858,-0.050126805901527405,0.18790076673030853,-0.35634127259254456,-0.07257527112960815
0.07661149764853906,-0.07916926904247094,0.8503344652224866,0.5145816683642526,-0.05582396120872782,-0.21372263655649165,2.0472045974986894,-0.21176894009113312,0.05579496547579765,-0.9757258296012878,0.09154900908470154,-0.028924627229571342,-0.17312000691890717,0.1984863579273224,-0.13282348215579987,-0.021536968648433685
0.07926969548255859,-0.07409182159422323,0.8503838998102873,0.5148533987126988,-0.04440302972666063,-0.212925758757043,2.0480321501908345,-0.21111223101615906,0.044388435781002045,-0.976453423500061,0.05704853683710098,-0.03210093080997467,-0.1621442288160324,0.3468659818172455,-0.1121019572019577,-0.07272764295339584
0.08870914487879814,-0.0705867418583468,0.8493106837857489,0.5155768914673886,-0.02843120782701438,-0.22546476094722037,2.0471943497029854,-0.223469078540802,0.028427371755242348,-0.9742963910102844,-0.012955732643604279,-0.018603134900331497,-0.399833083152771,0.35463881492614746,-0.574958086013794,-0.1441846787929535
0.08857667304553322,-0.061239571151488564,0.8484395418194745,0.5182221918783821,-0.012111648179598963,-0.2154540412281912,2.0436451491732646,-0.21377535164356232,0.012111345306038857,-0.9768077731132507,-0.10229886323213577,0.11426010727882385,-0.10950158536434174,0.4377053678035736,0.5153401494026184,-0.19906464219093323
0.08573732121829537,-0.056225714650736926,0.8479723873889988,0.520029425393681,-0.006183886606551555,-0.20532741933902093,2.0407273415074143,-0.20388385653495789,0.006183840334415436,-0.9789755344390869,-0.08856280148029327,0.17064407467842102,0.2895548939704895,-0.1301397830247879,-0.26751163601875305,0.004608785733580589
0.09258655199427054,-0.06809981662706359,0.846348262854149,0.5200815543938189,-0.018968344693649483,-0.22960899194904136,2.0373782388665407,-0.22755588591098785,0.018967200070619583,-0.9735803008079529,-0.09138237684965134,0.045886434614658356,-0.12886103987693787,-0.3930424451828003,-0.18026134371757507,-0.10419945418834686
0.09047336076293934,-0.07234769680986526,0.843819881180515,0.5239737304641945,-0.027288907970070348,-0.23062717048004028,2.0270619640423595,-0.2285030633211136,0.027285514399409294,-0.9731607437133789,-0.12362910062074661,0.07680580019950867,-0.044716738164424896,-0.2993307411670685,0.01849301904439926,-0.2656289041042328
0.08647192944217805,-0.0768320704031054,0.8410490808635188,0.5284467523045802,-0.03785650530128074,-0.2288114374952771,2.015277942770974,-0.22665762901306152,0.037847455590963364,-0.9732388854026794,-0.04789213836193085,0.07058423012495041,0.049224771559238434,-0.3375220000743866,0.10299678146839142,-0.14226150512695312
0.08029812694741602,-0.08024297923085495,0.839611396822378,0.5311929986569786,-0.0494583952432398,-0.2221803684298431,2.0078895818498395,-0.22008749842643738,0.04943822696805,-0.9742265343666077,0.029391082003712654,0.04083801805973053,0.09933829307556152,-0.26946181058883667,0.41014084219932556,-0.10844915360212326
0.07069523878418667,-0.0827149779444748,0.8390084500380219,0.5331278748491214,-0.06346051255782513,-0.2087531585115336,2.00281931213696,-0.2068231701850891,0.06341791898012161,-0.9763208031654358,0.015622787177562714,0.02932991087436676,0.17281031608581543,-0.3080989122390747,0.5152677297592163,0.010796085000038147
0.059339437537563086,-0.08251883952448476,0.8397011754436262,0.5334524413702295,-0.07534406183145959,-0.18935814495457912,2.002507389665746,-0.18769457936286926,0.07527279108762741,-0.9793389439582825,0.012661561369895935,-0.02956167235970497,0.18573327362537384,-0.21654042601585388,0.4994986653327942,0.05526011437177658
0.04976023555970929,-0.07963740170943626,0.8402680777064643,0.5339768864103627,-0.08077972578802729,-0.1700430366153959,2.0024985882758974,-0.16867297887802124,0.08069189637899399,-0.9823635816574097,-0.014960752800107002,0.018537279218435287,0.23594848811626434,-0.08031558990478516,0.401767373085022,0.04019482806324959
0.04357403835846392,-0.07741187548166742,0.8410819251182862,0.5335633611749423,-0.08381854853188256,-0.15710166588811755,2.0043627648823015,-0.15590699017047882,0.08372043073177338,-0.9842174053192139,-0.050365932285785675,0.031270746141672134,0.17022381722927094,-0.04305713623762131,0.2967495024204254,0.0845172330737114
0.041410605618104154,-0.07643445935476939,0.8426052568633291,0.5314691415299856,-0.08489316846472245,-0.1521630753044081,2.009677687156963,-0.1510307341814041,0.08479122817516327,-0.9848858714103699,-0.09158851206302643,0.04012303426861763,0.09403952956199646,0.031038649380207062,-0.028708303347229958,0.18431337177753448
0.04614847113397009,-0.07662770474508693,0.8448575826571755,0.5274601273704667,-0.08088420319288589,-0.16001681787166333,2.018885844717491,-0.15881392359733582,0.08079603314399719,-0.9839970469474792,-0.13746336102485657,-0.002678338438272476,-0.07071421295404434,0.24793486297130585,-0.27443310618400574,0.22707194089889526
0.05908666539438863,-0.07326694490749794,0.8468642454031737,0.5234134924050664,-0.062281052407005454,-0.17805736401513284,2.0288440391735705,-0.17677462100982666,0.06224079057574272,-0.9822814464569092,-0.11928284168243408,0.013789692893624306,-0.045815832912921906,0.733384370803833,-0.6771240234375,0.09957049787044525
0.079765042697162,-0.0684692922656138,0.8479381903181562,0.5195673662196563,-0.03323494725486308,-0.20803178939786843,2.03865079959345,-0.20642051100730896,0.03322882205247879,-0.9778989553451538,-0.042961444705724716,0.12149839848279953,-0.06860119849443436,0.7716294527053833,-0.7120459079742432,0.17058129608631134
0.1008523742536066,-0.06797446196756689,0.8507618317452081,0.5112851802620972,-0.01253183486230867,-0.2435303549286876,2.0577893001305205,-0.2411114126443863,0.012531501241028309,-0.9704165458679199,-0.08803535997867584,0.034389544278383255,-0.4699186682701111,0.4518904387950897,-0.8201163411140442,0.48625487089157104
0.10360970900465126,-0.05910143285736111,0.856120363099296,0.502822107776481,0.0029986287144178735,-0.23911288200554834,2.0798558268183176,-0.23683981597423553,-0.002998629817739129,-0.971544086933136,0.02843104675412178,0.010819392278790474,-0.0627715140581131,0.5921691656112671,0.4108833968639374,0.39803990721702576
0.10505054477969157,-0.047622276310827764,0.8602099147029494,0.4967247002623759,0.022433973975893952,-0.23012451595403233,2.096844524713757,-0.2280413955450058,-0.022432098165154457,-0.9733930230140686,0.12358702719211578,-0.06536436080932617,0.0020181313157081604,0.5148654580116272,-0.08591240644454956,0.19374686479568481
0.10034713007934919,-0.036975528912485706,0.8632067638526008,0.49339376346576047,0.0351935075804284,-0.2114292967875997,2.106803389916761,-0.2097276747226715,-0.035186249762773514,-0.9771265387535095,0.1434406340122223,0.033933576196432114,-0.08635213971138,0.28382745385169983,0.8531487584114075,0.20465333759784698
0.08853114568984502,-0.03143813063638064,0.8665748722217093,0.49012431905903714,0.032301163607105485,-0.1854115870123211,2.115131767780321,-0.1842549592256546,-0.032295551151037216,-0.9823477268218994,0.15727031230926514,-0.01788301393389702,0.006421657279133797,-0.27759331464767456,0.46624183654785156,0.19346266984939575
0.07638885413990612,-0.034699026904586705,0.8685643440771008,0.4884226757676433,0.014343913855230052,-0.16739060153006208,2.118270335795102,-0.16659289598464966,-0.014343426562845707,-0.9859214425086975,0.13139881193637848,-0.02493881992995739,0.10995548218488693,-0.5380961894989014,0.18549436330795288,0.12559333443641663
0.06679454180293452,-0.043202981385305726,0.8689669772183694,0.488434676660257,-0.00983454595536662,-0.15896447773802969,2.1166586613397977,-0.15828821063041687,0.009834383614361286,-0.987343966960907,0.06659762561321259,-0.023264816030859947,0.1299663782119751,-0.7156134843826294,-0.08082360029220581,0.008038699626922607
0.061105565044458555,-0.05707663156647159,0.8677993188842333,0.489829249199649,-0.039209583874241,-0.16281328924567728,2.1106543116620036,-0.1619703769683838,0.03919953480362892,-0.9860167503356934,0.05027362331748009,-0.03890104964375496,0.10810326784849167,-0.8011069893836975,-0.12738613784313202,-0.06389905512332916
0.05362648978657034,-0.0704196361961378,0.8654430659439128,0.49312630385993617,-0.06905397331044233,-0.16338653131868858,2.100106956454058,-0.16227293014526367,0.06899910420179367,-0.9843305349349976,0.04954195022583008,-0.09500366449356079,0.10790129750967026,-0.7062963247299194,0.11042626202106476,-0.23733270168304443
0.04670455802207313,-0.07929342099333084,0.8613595391975885,0.49959078529742046,-0.09005563159501571,-0.16103214887925893,2.083149608364033,-0.15968739986419678,0.08993395417928696,-0.9830624461174011,0.05266982316970825,-0.1047760620713234,0.1243760734796524,-0.46154364943504333,0.08472681790590286,-0.4164399802684784
0.04241807584910835,-0.08386960186912172,0.8559801163549613,0.5083940789582818,-0.10062093063349037,-0.15937218201976494,2.061658974946893,-0.15789571404457092,0.10045122355222702,-0.9823331832885742,0.0780506283044815,-0.06188073009252548,0.10118125379085541,-0.24151453375816345,0.10474111884832382,-0.5307415127754211
0.04029505387186079,-0.08603517635912027,0.8499581874345914,0.518213685018738,-0.10468078685683543,-0.15920697463344427,2.038201849576729,-0.15766747295856476,0.10448970645666122,-0.9819484949111938,0.08937343209981918,-0.02396976575255394,0.016628127545118332,-0.18512052297592163,-0.02522556483745575,-0.5855455994606018
0.036508869978576684,-0.08766092435509451,0.8435116602952031,0.5286499760840725,-0.1095039115505258,-0.155834777608256,2.0133568051951385,-0.15427523851394653,0.10928519070148468,-0.9819653034210205,0.1046389564871788,-0.007859867066144943,-0.056192994117736816,-0.17779724299907684,0.2591954469680786,-0.5737094283103943
0.032427997894835664,-0.08564313027937684,0.8367745541204701,0.5398351325541381,-0.10852936821536287,-0.1481459291333398,1.9876313908939391,-0.14673621952533722,0.10831643640995026,-0.9832273721694946,0.08995165675878525,-0.028673188760876656,-0.10968658328056335,-0.013523295521736145,0.21222391724586487,-0.7191277742385864
0.031200249662218075,-0.08233668635725702,0.8288562526557598,0.5524894620163703,-0.10219271586615765,-0.14394633638580123,1.9583492164156873,-0.1427013874053955,0.1020149290561676,-0.9844944477081299,0.042124681174755096,0.025541506707668304,-0.20714469254016876,0.03584383428096771,-0.292971134185791,-0.7774023413658142
0.029652103827871475,-0.08006683561053139,0.8202222318720472,0.5656372920873316,-0.09795711010031194,-0.1403511669289018,1.9272578828153424,-0.1392202377319336,0.09780051559209824,-0.9854201078414917,-0.007033742964267731,0.035113364458084106,-0.37418827414512634,0.13251742720603943,0.9774361252784729,-0.765540599822998
0.022750952821662083,-0.07130453154558955,0.8115660066408309,0.5794468696393269,-0.08949012993851876,-0.12033272575299922,1.8960960993542901,-0.11956220865249634,0.0893707200884819,-0.9887961149215698,-0.04609239846467972,0.18041566014289856,0.15061667561531067,-0.06817062199115753,0.2225426435470581,-0.7337749600410461
0.025256657951814032,-0.07593278827188449,0.8038276308792417,0.5894551915955177,-0.09242996354996559,-0.1310546009409475,1.8700550599231847,-0.13012199103832245,0.09229840338230133,-0.9871926307678223,-0.08232679963111877,0.14165671169757843,0.11239249259233475,-0.22408762574195862,-0.5734913945198059,-0.5610204339027405
0.027210841291931964,-0.08327801922796502,0.7961800918884565,0.5986833038140589,-0.10019480775005371,-0.14426469623505123,1.8448579125136713,-0.14304381608963013,0.10002724081277847,-0.9846487045288086,-0.13288602232933044,0.13586534559726715,-0.01753593422472477,-0.2599412202835083,-0.03874824941158295,-0.6284496784210205
0.0257172117474686,-0.08963022491781807,0.7879552867716626,0.6086307848922445,-0.11016735781003419,-0.1511186182441477,1.8178543655045052,-0.14963148534297943,0.10994463413953781,-0.9826101064682007,-0.1258840560913086,0.11396214365959167,0.030370770022273064,-0.3347071409225464,-0.1059744656085968,-0.599486231803894
0.02391111056737175,-0.09742740548807044,0.7804984537842682,0.6170562029429583,-0.12288391426772906,-0.15943327644550861,1.793807172483604,-0.15756157040596008,0.12257487326860428,-0.9798722863197327,-0.08473583310842514,0.06021309643983841,0.06517646461725235,-0.21147382259368896,0.04454556852579117,-0.5112543106079102
0.02158958800005528,-0.10264010582549651,0.7733830144822005,0.6252021176905094,-0.13214880678917837,-0.1638909401388375,1.7710409330657797,-0.16173569858074188,0.1317645013332367,-0.9779977798461914,-0.03906092792749405,0.03452658653259277,0.04647798836231232,-0.1829899549484253,0.25555187463760376,-0.515492856502533
0.015509357260845048,-0.10444917052018465,0.766770563710595,0.6331767307969016,-0.141003544940526,-0.15827812857011833,1.749875000195994,-0.1560538411140442,0.14053675532341003,-0.9776996374130249,-0.01414366066455841,0.018811091780662537,0.10026874393224716,-0.22736434638500214,0.45900219678878784,-0.4423055052757263
0.006424001631923339,-0.1020933411521018,0.7606778465875648,0.641018731005565,-0.14762003918375904,-0.14269105858815476,1.7305491555570844,-0.14066071808338165,0.14708445966243744,-0.9790713787078857,-0.029767954722046852,-0.00960624497383833,0.17448268830776215,-0.17032650113105774,0.5178221464157104,-0.4706897735595703
-2.8856790561228307e-05,-0.0988421896740991,0.7540049932607314,0.6493895759096984,-0.14965043917438337,-0.13014830001693678,1.7098400130005569,-0.12833069264888763,0.14909248054027557,-0.9804604649543762,-0.07826085388660431,0.02444852888584137,0.20203745365142822,-0.08293649554252625,0.19982615113258362,-0.5274860262870789
-0.003312042117928859,-0.09697260280705049,0.7466202352874344,0.6581364337804412,-0.14972171468975473,-0.1244055656224856,1.6872649893620741,-0.12269676476716995,0.14916294813156128,-0.9811707139015198,-0.08663956820964813,0.07130879908800125,0.09220635145902634,-0.045593515038490295,0.2962803840637207,-0.5597928762435913
-0.007862194936867253,-0.09397874175756876,0.7395098300052904,0.6665068248860639,-0.15003912684359097,-0.11519249085917078,1.665879370533576,-0.11364663392305374,0.1494768112897873,-0.9822123646736145,-0.13533741235733032,0.14679834246635437,0.06611485779285431,-0.0976988673210144,0.30500003695487976,-0.46056032180786133
-0.01100043510634997,-0.09350712762662472,0.7342168452579766,0.6723548225710599,-0.1526940722876376,-0.11110503301997597,1.6501933138313454,-0.10958655923604965,0.15210139751434326,-0.9822708368301392,-0.15911568701267242,0.13873076438903809,0.018145039677619934,-0.07973913103342056,0.033310383558273315,-0.3040880560874939
-0.009527611512142986,-0.09749679663912268,0.7300774475092792,0.6763064652136221,-0.1558780825908819,-0.11969705200538625,1.6378668983170692,-0.11796367168426514,0.15524758398532867,-0.9808071851730347,-0.10742608457803726,0.08170143514871597,-0.10341276228427887,0.1726837158203125,-0.031890422105789185,-0.2948271632194519
-0.004053293541210302,-0.09568128727686126,0.7259274924813995,0.6810710906322563,-0.1449434935421351,-0.12609941159063637,1.6253696934709572,-0.12444675713777542,0.14443650841712952,-0.9816573262214661,-0.050693850964307785,0.01878780499100685,-0.40302133560180664,0.4203760623931885,0.3078664541244507,-0.39490580558776855
-0.0037105689999178924,-0.07917733454086377,0.7214585212863115,0.6879061454821793,-0.11963655880254813,-0.10451498451370392,1.612135836743647,-0.10357913374900818,0.1193513572216034,-0.9874343872070312,0.008916083723306656,0.039900340139865875,-0.1326410323381424,0.6769841909408569,0.7301527261734009,-0.381037175655365
-0.0024112125337117964,-0.059065305187936734,0.7168128467779246,0.694755231747729,-0.08814202932722898,-0.0790036147942096,1.5985606027283439,-0.07861511409282684,0.08802792429924011,-0.993010938167572,0.08378907293081284,0.03278694301843643,0.22160044312477112,0.7819120287895203,0.5129733085632324,-0.4202614426612854
0.0074526947929322036,-0.047509714668095795,0.7115765954804992,0.700960746758106,-0.05719669004272732,-0.07741498822446437,1.5836112215985763,-0.07721124589443207,0.057165488600730896,-0.9953745603561401,0.07707532495260239,-0.013828987255692482,0.011316938325762749,0.603493332862854,-0.1098969578742981,-0.491082102060318
0.011732047135533788,-0.037485642523350196,0.7040875959885492,0.7090259933738357,-0.03615757715014438,-0.06977955395429106,1.5625448075548423,-0.06967739760875702,0.036149680614471436,-0.9969143867492676,0.06538054347038269,0.03259822353720665,-0.00870612170547247,0.34574466943740845,0.3107004463672638,-0.6095612645149231
0.010980870547225218,-0.032162951931730493,0.6946928566729282,0.7185031586608532,-0.028911193002830824,-0.06153956647130552,1.5362124724493782,-0.061475057154893875,0.02890714444220066,-0.9976899027824402,0.059892743825912476,0.003931071609258652,0.013189269229769707,0.008508726954460144,0.02131279557943344,-0.7475239038467407
0.008629830536808825,-0.03256719193137642,0.6824542124938138,0.7301514859429479,-0.03185445434461944,-0.059401941082543354,1.5023446384352876,-0.05933692306280136,0.03184904530644417,-0.9977297782897949,0.041597094386816025,-0.010548540391027927,-0.04894471913576126,-0.18125855922698975,0.14832544326782227,-0.9188744425773621
0.0029408635367119077,-0.033281464132123594,0.6670675226905484,0.7442477263489544,-0.04003519965297404,-0.05353125413568162,1.4604598171905572,-0.05346284061670303,0.04002448171377182,-0.9977673888206482,0.0028472188860177994,-0.051418956369161606,0.012663742527365685,-0.29107412695884705,0.09590893983840942,-1.1747894287109375
-0.0014929403576620943,-0.03492316762876511,0.6461995094226561,0.7623675621721604,-0.047428785941571176,-0.051399509893434725,1.4050043282346585,-0.05131912976503372,0.047410983592271805,-0.9975562691688538,-0.013612458482384682,-0.09594695270061493,0.041532084345817566,-0.21939456462860107,0.11189474165439606,-1.5874820947647095
-0.003822870280324851,-0.03519267165514509,0.6181436618738888,0.7852677051041581,-0.049532458870190005,-0.05062886634781361,1.3324900582342962,-0.05054519325494766,0.04951218143105507,-0.9974937438964844,-0.03186507150530815,-0.07661959528923035,0.1124386414885521,-0.08408302068710327,0.02934160828590393,-2.009577751159668
-0.0037278472661609816,-0.036537268522168154,0.5839022311382277,0.8109927554572375,-0.048734187968790386,-0.055002522503681664,1.2466848003075122,-0.054909542202949524,0.04871487244963646,-0.997302234172821,-0.015756413340568542,-0.009562868624925613,0.040850039571523666,-0.11276635527610779,0.045332878828048706,-2.2207529544830322
-0.005181108027327863,-0.034891005860631014,0.5457404625445833,0.8372115624360524,-0.04677528940683458,-0.05284960334423597,1.154119711920029,-0.05276724323630333,0.04675820469856262,-0.9975115656852722,-0.012266322039067745,-0.033152952790260315,-0.02017303928732872,-0.014279544353485107,0.3313294053077698,-2.4385459423065186
-0.007246506908325961,-0.02737273532378248,0.5020041128271142,0.8644015730996305,-0.04002091792002338,-0.0400893479952823,1.0514922246932066,-0.040046531707048416,0.040010206401348114,-0.9983964562416077,-0.04007976874709129,-0.018036168068647385,0.013119248673319817,0.0937037467956543,0.505328357219696,-2.706862449645996
-0.009603418293858676,-0.017267274901429812,0.45157108140858715,0.8920164070938315,-0.032733462591310394,-0.02214580556745831,0.9368859562534092,-0.022132141515612602,0.03272758796811104,-0.9992192387580872,-0.08013825118541718,0.008022906258702278,0.054358724504709244,0.07034933567047119,0.5377776026725769,-3.0232083797454834
-0.0128765504906286,-0.009424326954417845,0.39415843681841145,0.9189040054913064,-0.031098996250363442,-0.007172831338891434,0.8103016525814722,-0.00716930627822876,0.03109395131468773,-0.9994907379150391,-0.11683747172355652,0.02922484651207924,-0.016979724168777466,-0.08858394622802734,0.5610162019729614,-3.302489757537842
-0.017479808940908358,-0.0044310398360888825,0.3299955260182715,0.9438102741373354,-0.035927421745043396,0.0031744495124988673,0.6727684223440894,0.003172395983710885,0.035919662564992905,-0.9993496537208557,-0.16711941361427307,0.013801902532577515,-0.14977964758872986,-0.19965213537216187,0.2965581715106964,-3.5919039249420166
-0.024510923204883885,0.006135826205967333,0.2585590996588324,0.965664890297747,-0.04418009951816022,0.024551769635369182,0.5237739790756486,0.0245253536850214,0.04416569694876671,-0.9987231492996216,-0.24718549847602844,0.05715993046760559,-0.061160776764154434,-0.060018956661224365,0.8565675020217896,-3.7962162494659424
-0.02762124537868126,0.01596775905863425,0.1844478068718129,0.9823243437419732,-0.04839449519363814,0.04162112426044292,0.3722186354951013,0.04156040400266647,0.04837557673454285,-0.9979642033576965,-0.2823401391506195,0.062022559344768524,0.023419499397277832,0.12230265140533447,0.39894962310791016,-3.7641024589538574
-0.025308741293134145,0.022030922229113667,0.11059517593129414,0.9932989094773025,-0.04542087884066686,0.04943572973107867,0.22289227177482032,0.04936464875936508,0.04540523514151573,-0.9977481961250305,-0.3146221935749054,0.09123028814792633,0.06846557557582855,0.33557459712028503,0.2955443263053894,-3.643761157989502
-0.021083326319759836,0.024998026126440788,0.039825000673702954,0.9986714200424486,-0.04013030844139613,0.05167349286697825,0.08075093634752978,0.05160893499851227,0.040119510143995285,-0.9978612065315247,-0.2938041388988495,0.08839552849531174,0.08164484798908234,0.27181416749954224,0.14363932609558105,-3.4399678707122803
-0.01833369918994584,0.02533908277452644,-0.02716150577745961,0.9991417071503937,-0.03802158256304856,0.04969508056624229,-0.05341124327785954,0.04963875189423561,0.03801240026950836,-0.9980435967445374,-0.2890971899032593,0.09535925835371017,0.05674884095788002,0.1476140022277832,0.07746782898902893,-3.22270131111145
-0.01762978307118023,0.025288726594047403,-0.08904017358871409,0.9955509200983265,-0.03961648069723035,0.047267585021115305,-0.17746494018730932,0.04721293970942497,0.03960609808564186,-0.9980993270874023,-0.28887996077537537,0.06604592502117157,0.06276394426822662,0.08826005458831787,-0.008334890007972717,-2.9718515872955322
-0.017286496140688723,0.022813358288912365,-0.14588328774755294,0.9888876824728654,-0.040856347203852075,0.04012031016560347,-0.29211259128683265,0.040076106786727905,0.04084496572613716,-0.9983614683151245,-0.2974961996078491,0.027663327753543854,-0.0006252005696296692,0.11957898736000061,-0.10130134224891663,-2.7499916553497314
-0.015568544507043586,0.019543854110735386,-0.19803118225670707,0.9798771432244837,-0.03826044088239874,0.03216411780208851,-0.3982085752442026,0.032135069370269775,0.03825109079480171,-0.9987513422966003,-0.2888994514942169,0.0057517290115356445,0.020229972898960114,0.1949380487203598,-0.15710484981536865,-2.5376036167144775
-0.013456273280920934,0.014106689666177029,-0.24550698918219288,0.9691987747852155,-0.03301618695983175,0.02074995098586791,-0.4958390089633199,0.020737186074256897,0.033010177314281464,-0.9992398619651794,-0.2648114860057831,0.018687918782234192,0.046253304928541183,0.18607497215270996,-0.2345096617937088,-2.318681240081787
-0.01275115911858004,0.007433051675251116,-0.2877711407213416,0.9575854336714607,-0.028702624890656923,0.0068996294365209375,-0.5837638565797849,0.006896764971315861,0.028698675334453583,-0.9995642900466919,-0.23127248883247375,0.03106427937746048,0.04716908931732178,0.07155749201774597,-0.30533936619758606,-2.070242166519165
-0.014380821541721114,0.0014232092971036049,-0.32474093368796886,0.9456926322153948,-0.028127731405791025,-0.006650925581159275,-0.6616408830741407,-0.006648213602602482,0.028124015778303146,-0.9995823502540588,-0.2191692739725113,0.02661198377609253,0.017107274383306503,-0.03192031383514404,-0.27022501826286316,-1.8167431354522705
-0.017298263507824742,-0.002754923481267078,-0.35643970368987254,0.934154126590822,-0.030359223637751797,-0.0174875713929187,-0.7292916220994906,-0.017478588968515396,0.030354555696249008,-0.9993863701820374,-0.2113472819328308,0.027759306132793427,0.05254000052809715,-0.10292734205722809,-0.27293115854263306,-1.5727405548095703
-0.02229746145835906,-0.007256835987859507,-0.38355536578714594,0.9232201866100876,-0.03561166287848802,-0.030528031146946643,-0.7880582362699227,-0.030503904446959496,0.03560413420200348,-0.9989003539085388,-0.18222838640213013,0.04217759147286415,0.0169534794986248,-0.21546535193920135,-0.2362099438905716,-1.3361339569091797
-0.02853189435373492,-0.010077388828079447,-0.4055503374899333,0.9135717618453009,-0.04397225823288012,-0.04160728530863433,-0.8364832611272601,-0.04155504330992699,0.043958090245723724,-0.9981687664985657,-0.1485777497291565,0.04312540963292122,0.06617734581232071,-0.2984868288040161,-0.24175530672073364,-1.053213119506836
-0.036309987509000725,-0.013668200775469189,-0.4215282241180249,0.9059849641840083,-0.05429621498883444,-0.05548793659614072,-0.8724675602268828,-0.05537770688533783,0.054269541054964066,-0.9969895482063293,-0.1021728664636612,0.04790244624018669,0.04433957487344742,-0.23917092382907867,-0.3962714374065399,-0.6833088994026184
-0.041725098855986895,-0.022573780104906495,-0.43054345167673175,0.9013222124934496,-0.05580649287832557,-0.07681642724948395,-0.8934101517160256,-0.0766214057803154,0.05577753111720085,-0.9954988956451416,-0.07479751110076904,-0.06028880923986435,-0.25004059076309204,0.1206006109714508,-0.38491010665893555,-0.43957945704460144
-0.03773740116031802,-0.030298320913418636,-0.4375131460533418,0.8979087652699439,-0.04126937288924533,-0.08761804499304864,-0.9086135310471241,-0.08743144571781158,0.04125766083598137,-0.9953157901763916,0.0038406159728765488,-0.027300551533699036,-0.16013546288013458,0.4322868585586548,-0.23059004545211792,-0.38973528146743774
-0.03397539173049604,-0.037171942434161546,-0.443367372219436,0.8949241845516769,-0.027852747710940345,-0.0968481337714088,-0.9213109260241815,-0.09665927290916443,0.027849148958921432,-0.9949278235435486,0.07623875141143799,0.04405321180820465,-0.02382807806134224,0.14714893698692322,-0.23796457052230835,-0.2736354172229767
-0.03627744301276123,-0.04376546758437561,-0.4467248707205936,0.8928635536294655,-0.02568219080102001,-0.11082847116305353,-0.9292449888599874,-0.11056522279977798,0.025679370388388634,-0.9935370683670044,0.09175988286733627,0.013500116765499115,0.0539148673415184,-0.05241912603378296,-0.5946100950241089,-0.17071446776390076
-0.04261478255315729,-0.051773840638621824,-0.44993276361087664,0.8905414266669921,-0.02931516272572799,-0.1309914817845288,-0.937576750046571,-0.13056103885173798,0.029310965910553932,-0.9910069108009338,0.09738309681415558,0.003460438922047615,-0.057999175041913986,-0.11291036754846573,-0.32021892070770264,-0.18691635131835938
-0.04725923882707016,-0.053220591479958015,-0.4524968223336928,0.8889211309188446,-0.03586286197255115,-0.13791228650325887,-0.9441847581851354,-0.13738709688186646,0.03585517778992653,-0.9898682832717896,0.100056491792202,0.005357120186090469,0.038189683109521866,-0.20507317781448364,-0.23745091259479523,-0.09415780752897263
-0.052042645219438674,-0.053236868127975345,-0.45327130525659237,0.8882580916418398,-0.044207509789618245,-0.14237417221275356,-0.9468478574901387,-0.14175499975681305,0.04419311508536339,-0.9889147877693176,0.07977800071239471,-0.01667691394686699,0.05600292980670929,-0.2462010383605957,-0.38344934582710266,-0.007626539096236229
-0.05717280314177894,-0.05372649541984388,-0.45268708496658383,0.8882112611448751,-0.052945206457919086,-0.1479494519725598,-0.946618570487061,-0.1472037136554718,0.05292047560214996,-0.9876894950866699,0.06453187763690948,-0.04362312704324722,0.041292931884527206,-0.1674770712852478,-0.22925470769405365,0.04272628203034401
-0.060373945543450463,-0.05524448649906861,-0.4515577029218057,0.8884811552197331,-0.057421629231764165,-0.15354672892673485,-0.944847045799476,-0.15269197523593903,0.057390082627534866,-0.9866060614585876,0.04571196809411049,-0.07847990095615387,0.07900889217853546,-0.06055566668510437,-0.22999216616153717,0.07744462788105011
-0.062038343026828605,-0.05897833043288539,-0.4500405609533033,0.8888960974829728,-0.05723724759368757,-0.1616575204696182,-0.9419740620347385,-0.16069072484970093,0.05720600485801697,-0.9853456020355225,0.03814798220992088,-0.12026049941778183,0.11048080027103424,0.09614069014787674,-0.2150348722934723,0.039084941148757935
-0.061026693618639646,-0.06484076959281362,-0.44994048249785984,0.8886084267441188,-0.05012968732482895,-0.17120198889863003,-0.9417204579984086,-0.17015284299850464,0.05010869726538658,-0.9841428399085999,0.04220457375049591,-0.1411876082420349,0.039583928883075714,0.22617146372795105,-0.16775645315647125,-0.06974310427904129
-0.0566905959526662,-0.06891799495261251,-0.45105186950395004,0.8880252073157304,-0.03852370349095311,-0.1745565939333558,-0.9433092818545031,-0.17354260385036469,0.03851417824625969,-0.9840729832649231,0.03198811784386635,-0.1309649795293808,0.04648754373192787,0.3280632495880127,-0.05164732784032822,-0.11989662051200867
-0.05052468155970019,-0.07355958693044098,-0.4532595759213856,0.8869002680844055,-0.022939544718237507,-0.17725476274046278,-0.9469519699922595,-0.17628160119056702,0.022937536239624023,-0.9840725064277649,0.03715283423662186,-0.12269827723503113,0.021582860499620438,0.39502182602882385,-0.08586747944355011,-0.18729257583618164
-0.042516530239153555,-0.0790939733268497,-0.4562693216398022,0.8852992604047345,-0.0031034034216553675,-0.17980986824585063,-0.9520380537348693,-0.17884162068367004,0.003103400580585003,-0.9838730096817017,0.04366253316402435,-0.09335407614707947,-0.06459100544452667,0.35031187534332275,-0.0599408894777298,-0.1915581375360489
